"Time (s)","Linear Acceleration x (m/s^2)","Linear Acceleration y (m/s^2)","Linear Acceleration z (m/s^2)","Absolute acceleration (m/s^2)"
1.546512503E-2,-3.558532123E-1,-6.230097181E-1,-2.895864542E0,2.983421536E0
2.546812501E-2,-1.332580447E-3,-7.525688142E-1,-3.392490787E0,3.474961199E0
3.547112504E-2,2.326550098E-1,-8.536525548E-1,-3.424766248E0,3.537212870E0
4.547512502E-2,4.440389454E-1,-6.757510185E-1,-2.138814422E0,2.286555741E0
5.547812505E-2,3.072459664E-1,-8.139213091E-1,-1.803551449E0,2.002414994E0
6.548112503E-2,4.425534602E-1,-8.583847064E-1,-2.261351597E0,2.458940608E0
7.548512501E-2,-2.111648843E-1,-8.964658678E-1,-2.914974412E0,3.057011201E0
8.548812504E-2,-2.625877838E0,-2.614333972E-1,-3.717212400E0,4.558645618E0
9.549112502E-2,-2.425550037E0,-6.530512503E-1,-3.286915215E0,4.136856361E0
1.054951251E-1,-1.390603245E0,-1.118087035E0,-3.359548159E0,3.804005762E0
1.154981250E-1,5.274773240E-2,-1.095339320E0,-2.639596283E0,2.858324524E0
1.255011250E-1,2.056240627E0,-1.531029684E0,-2.235359554E0,3.401324704E0
1.355051250E-1,3.864237129E0,-1.720559870E0,-2.501330683E0,4.914194750E0
1.455081250E-1,3.189096560E0,-2.750996266E0,-2.549674292E0,4.923327769E0
1.555111250E-1,2.842707212E0,-1.639961850E0,-1.552229349E0,3.630409772E0
1.655151250E-1,2.185854687E0,-2.430806830E0,-2.200186213E0,3.940507826E0
1.755181250E-1,5.061402494E0,-4.005248874E0,2.081909904E0,6.781899630E0
1.855211250E-1,1.089447490E1,-1.588449342E0,5.452366043E0,1.228580686E1
1.955251250E-1,1.783308271E1,-8.724750343E-1,5.256206576E0,1.861203265E1
2.055281251E-1,1.982635058E1,-2.515558420E0,2.518577045E-1,1.998688680E1
2.155311250E-1,1.527213089E1,-6.522178466E0,-1.410516230E0,1.666632383E1
2.255351250E-1,5.355357812E0,-9.499878300E0,-7.111087807E0,1.301902895E1
2.355381250E-1,-1.065727090E1,-7.562510982E0,-1.369522922E1,1.892956151E1
2.455411250E-1,-1.156293795E1,-6.951864617E0,-1.237750538E1,1.830935813E1
2.555441250E-1,-4.373976340E0,-4.117863909E0,-1.211722476E1,1.352462968E1
2.655481250E-1,-2.161551028E0,-1.005394233E0,-7.642146551E0,8.005343485E0
2.755511250E-1,-4.288776268E0,1.101082748E0,2.412992118E0,5.042669537E0
2.855541250E-1,1.253006566E0,3.975216697E0,3.021362747E0,5.147912790E0
2.955581250E-1,5.417517223E0,6.126668707E0,1.939943016E0,8.405292452E0
3.055611250E-1,4.702867310E0,5.063088831E0,2.151605206E0,7.237488128E0
3.155641250E-1,3.750495921E0,3.280381536E0,2.595100726E0,5.617977434E0
3.255681250E-1,2.758117590E0,-2.668716002E-1,7.461343042E0,7.959275914E0
3.355711250E-1,7.481768243E-1,-3.014103721E0,1.109856729E1,1.152487681E1
3.455741250E-1,1.328475556E0,-4.712684785E0,1.368208935E1,1.453182075E1
3.555781250E-1,7.295878679E-1,-3.631042275E0,4.931603077E0,6.167452908E0
3.655811250E-1,-8.682960293E-1,-1.753789451E0,6.538087571E-1,2.063293804E0
3.755841251E-1,-2.729470034E0,-2.460325329E0,1.017309104E0,3.812889351E0
3.855881250E-1,-4.234880143E0,-3.193249837E0,-8.369382888E-1,5.369499050E0
3.955911250E-1,-3.711787353E0,-4.483568364E0,-1.490257049E0,6.008378875E0
4.055941250E-1,-4.263209610E0,-2.871696246E0,-2.663572206E0,5.789318820E0
4.155981250E-1,-2.855122605E0,-5.489640874E-1,-2.582532136E0,3.888773443E0
4.256011251E-1,-8.006854056E-1,-9.160946783E-1,-4.699258701E0,4.854210432E0
4.356041250E-1,-2.488466516E0,-2.232145778E0,-6.158505042E0,7.007290826E0
4.456081250E-1,-5.313658978E0,-4.145864470E0,-6.003752047E0,9.025973775E0
4.556111250E-1,-5.875284626E0,-6.315596337E0,-5.583890973E0,1.027548368E1
4.656141250E-1,-5.666470031E0,-7.062710284E0,-5.769054167E0,1.073651457E1
4.756171250E-1,-5.994331598E0,-7.475972190E0,-6.143784091E0,1.138280521E1
4.856211250E-1,-5.915212339E0,-8.251266793E0,-5.517783523E0,1.155504547E1
4.956241250E-1,-5.791095246E0,-8.995808550E0,-4.731235369E0,1.169811710E1
5.056271250E-1,-5.530550333E0,-9.278774611E0,-4.180235866E0,1.158261703E1
5.156311250E-1,-5.083510231E0,-9.325967488E0,-3.841923569E0,1.129496005E1
5.256341250E-1,-4.311763135E0,-9.290046288E0,-3.446027309E0,1.080608003E1
5.356371250E-1,-3.033222070E0,-8.937638694E0,-2.764422058E0,9.834828461E0
5.456411250E-1,-1.426352829E0,-8.428339779E0,-1.646754853E0,8.705354408E0
5.556441250E-1,3.292836106E-1,-7.962091573E0,-3.248023045E-1,7.975514181E0
5.656471250E-1,2.329345944E0,-7.521360617E0,1.021957056E0,7.939843467E0
5.756511251E-1,3.977894722E0,-7.366315262E0,2.391688372E0,8.706688247E0
5.856541250E-1,5.601852450E0,-7.182678777E0,3.357860652E0,9.708081862E0
5.956571250E-1,6.859917151E0,-6.716308365E0,3.933904949E0,1.037510817E1
6.056611250E-1,7.377707977E0,-6.479257565E0,3.991464648E0,1.059920486E1
6.156641250E-1,8.389790255E0,-6.124605224E0,4.171690452E0,1.119385416E1
6.256671250E-1,1.007544020E1,-5.298881895E0,4.291761564E0,1.216601257E1
6.356711250E-1,1.249079401E1,-3.815921001E0,4.462616036E0,1.380203355E1
6.456741250E-1,1.489132162E1,-1.934969375E0,4.648934054E0,1.571967410E1
6.556771250E-1,1.639657268E1,-3.841264004E-1,4.466654123E0,1.699841604E1
6.656801250E-1,1.691475878E1,7.884642863E-1,4.169123817E0,1.743881687E1
6.756841250E-1,1.678640187E1,1.504546475E0,3.711342965E0,1.725749155E1
6.856871250E-1,1.667181282E1,2.029144630E0,3.511791528E0,1.715807245E1
6.956901251E-1,1.670614533E1,2.631403164E0,4.230939996E0,1.743331373E1
7.056941250E-1,1.598977955E1,3.212239839E0,3.908417521E0,1.677102449E1
7.156971250E-1,1.418359101E1,3.266580938E0,2.324708225E0,1.473937153E1
7.257001250E-1,1.231586871E1,2.938840992E0,1.161685922E0,1.271483081E1
7.357041250E-1,1.050371600E1,2.305934277E0,6.881512088E-1,1.077584961E1
7.457071251E-1,8.710290763E0,1.820072756E0,8.814779922E-2,8.898853862E0
7.557101250E-1,6.412872371E0,2.072788247E0,-5.089550405E0,8.445407420E0
7.657141250E-1,4.467590847E0,2.508716885E0,-1.367579775E1,1.460412519E1
7.757171250E-1,5.014973847E0,3.093953590E0,-1.203504916E1,1.340018357E1
7.857201250E-1,4.826789398E0,3.095615954E0,-6.737113928E0,8.847001644E0
7.957231250E-1,5.294718093E0,4.557937930E0,-2.833317753E0,7.539000421E0
8.057271250E-1,5.612307857E0,5.901977166E0,-9.363959187E-1,8.198058994E0
8.157301250E-1,6.014259494E0,5.481406825E0,-4.907047695E-1,8.152173281E0
8.257331250E-1,5.179530868E0,5.004572820E0,-8.286804123E-1,7.249827608E0
8.357371250E-1,3.550387829E0,4.570764382E0,-2.550119265E0,6.324575009E0
8.457401250E-1,2.218327784E0,4.196746064E0,-3.793245207E0,6.076377612E0
8.557431250E-1,9.633486593E-1,3.877950019E0,-4.222543395E0,5.813467959E0
8.657471250E-1,3.572251153E-1,3.874324746E0,-4.209555852E0,5.732221427E0
8.757501250E-1,2.999715185E-1,4.099977568E0,-3.663292885E0,5.506315804E0
8.857531250E-1,2.075925279E-1,4.230026076E0,-2.919509805E0,5.143904428E0
8.957571251E-1,-8.022379875E-1,3.766237795E0,-2.427916405E0,4.552242413E0
9.057601250E-1,-1.096275752E0,3.592031699E0,-1.838440030E0,4.181432051E0
9.157631250E-1,-9.204640102E-1,3.362091697E0,-9.363590813E-1,3.609388162E0
9.257671250E-1,4.471336573E-1,4.734415085E0,-7.947769403E-2,4.756146697E0
9.357701250E-1,1.169847173E0,4.973786060E0,1.392039029E0,5.295740065E0
9.457717917E-1,-1.221531297E0,2.959347178E0,2.257054478E0,3.917163431E0
9.557747917E-1,-3.535474505E0,6.175191826E-1,3.688709562E0,5.146599669E0
9.657787917E-1,-4.393831730E0,-1.175346772E0,4.712248875E0,6.549235586E0
9.757817917E-1,-5.164557318E0,-2.399971831E0,4.982219499E0,7.566705242E0
9.857847917E-1,-6.640471732E0,-4.186848482E0,3.066813739E0,8.427983836E0
9.957887917E-1,-5.360212170E0,-2.646814086E0,1.367357347E0,6.132468135E0
1.005791792E0,-4.240368631E0,-2.810968526E0,8.465019947E-1,5.157405919E0
1.015794792E0,-4.020289375E0,-3.433894629E0,5.484337449E-1,5.315556278E0
1.025798792E0,-3.312479827E0,-1.423015531E0,-1.650435090E-2,3.605241767E0
1.035801792E0,-1.252261924E0,3.821941879E-1,-1.607168033E0,2.072974049E0
1.045804792E0,3.919107985E-1,5.523861703E-1,-5.847994063E-1,8.948267435E-1
1.055808792E0,-8.717321455E-2,1.080338288E0,9.884764107E-1,1.466906814E0
1.065811792E0,-2.592216879E-1,1.767385250E-1,-3.621531487E-1,4.791526821E-1
1.075814792E0,-7.384419411E-1,-1.432310265E0,7.311598188E-1,1.769577316E0
1.085818792E0,-1.758044323E0,-3.159906967E0,1.766424114E0,4.024423690E0
1.095821792E0,-3.549686163E0,-4.432710159E0,1.932177329E-1,5.682123221E0
1.105824792E0,-4.620726501E0,-5.339393159E0,-1.340871799E-1,7.062450855E0
1.115827792E0,-1.665216851E0,-4.429183996E0,-1.269123393E0,4.899111370E0
1.125831792E0,1.904070933E0,-3.265900907E0,-1.505478521E0,4.069159671E0
1.135834792E0,3.351104779E0,-3.177205954E0,-3.190018666E-1,4.628855486E0
1.145837792E0,2.475278998E0,-3.869984942E0,-2.904359158E-1,4.603057961E0
1.155841792E0,3.503741666E0,-2.244173062E0,5.194490969E-1,4.193130782E0
1.165844792E0,3.864503762E0,-2.738653086E0,-1.817969513E-1,4.740006349E0
1.175847792E0,3.022673693E0,-2.201802675E0,-2.024285594E0,4.252319771E0
1.185851792E0,3.924722482E0,-5.828419778E-1,-2.605865450E0,4.746965986E0
1.195854792E0,3.446882172E0,-9.253604686E-1,-1.895602410E0,4.041113361E0
1.205857792E0,-2.915538669E-1,-1.324570346E0,-1.208211998E-2,1.356331905E0
1.215861792E0,1.972074636E0,-7.321918523E-1,-1.188677546E0,2.416223828E0
1.225864792E0,6.111997458E0,1.017490368E0,-1.134031223E0,6.299033766E0
1.235867792E0,7.014763116E0,3.822113788E0,-3.527046329E-1,7.996240112E0
1.245870792E0,6.145150001E0,4.383571036E0,8.182786542E-1,7.592637455E0
1.255874792E0,4.329282562E0,2.706442822E0,1.710279588E0,5.384475510E0
1.265877792E0,1.549299309E0,3.396922392E-1,2.142581783E0,2.665778660E0
1.275880792E0,-1.083506602E0,-1.573842997E0,-1.539040369E0,2.453490084E0
1.285884792E0,-3.039753410E0,-2.152889255E0,-1.805104469E0,4.139255377E0
1.295887792E0,-5.462034414E0,-1.614994531E0,-8.704000767E-1,5.761911451E0
1.305890792E0,-6.082421656E0,-1.671810756E0,-9.107429411E-1,6.373402319E0
1.315894792E0,-5.317006509E0,-1.805343035E0,-5.339875408E-1,5.640475546E0
1.325897792E0,-4.283137506E0,-1.422645110E0,-3.959675968E-1,4.530560268E0
1.335900792E0,-2.967991117E0,-1.952484709E0,-6.412794165E-1,3.610042534E0
1.345904792E0,-2.485608689E0,-2.775786121E0,-1.747815204E0,4.115591955E0
1.355907792E0,-2.754858352E0,-2.551091657E0,-2.263534362E0,4.384164800E0
1.365910792E0,-2.727279959E0,-1.396769426E0,-1.349027495E0,3.347968935E0
1.375913792E0,-2.296226145E0,-7.177141464E-1,-1.361035922E0,2.764088799E0
1.385917792E0,-2.439360722E0,3.462387818E-1,-1.802749649E0,3.052911450E0
1.395920792E0,-2.892059759E0,1.488418685E0,-2.360735990E0,4.019014089E0
1.405923792E0,-3.760108743E0,2.460194351E0,-3.728873502E0,5.839132778E0
1.415927792E0,-4.635011834E0,2.586144546E0,-3.363740612E0,6.283806905E0
1.425930792E0,-4.923981231E0,2.556428411E0,-2.117980646E0,5.938582272E0
1.435933792E0,-4.984719184E0,3.068941541E0,-1.227407749E0,5.980999691E0
1.445937792E0,-4.154152021E0,3.493811340E0,-1.051164190E-1,5.429064943E0
1.455940792E0,-3.465278682E0,2.230758964E0,4.180253407E0,5.870175504E0
1.465943792E0,-4.378827775E0,-3.441495717E-1,1.746238795E0,4.726724187E0
1.475947792E0,-3.071036013E0,-2.478321304E0,2.661352018E0,4.759845927E0
1.485950792E0,-2.125950547E0,-4.351491457E0,2.915033469E0,5.652659883E0
1.495953792E0,-1.241689134E0,-4.321777661E0,2.525630541E0,5.157360147E0
1.505956792E0,4.939211766E-1,-2.547209106E0,1.315758592E0,2.909201442E0
1.515960792E0,2.272266302E0,-8.167858601E-1,-9.098127222E-1,2.580327979E0
1.525963792E0,3.385286433E0,1.222385575E0,-3.103594480E0,4.752545572E0
1.535966792E0,4.269290422E0,3.179674357E0,-4.047288308E0,6.687130354E0
1.545970792E0,4.225486591E0,3.803969293E0,-5.100664208E0,7.638173517E0
1.555973792E0,4.420985907E0,3.100716480E0,-5.384656456E0,7.625882521E0
1.565976792E0,6.189718063E0,1.987281489E0,-6.707044036E0,9.340574775E0
1.575980792E0,7.111578389E0,1.613099449E0,-6.273278868E0,9.619286084E0
1.585983792E0,6.198863693E0,3.187587978E0,-4.362366693E0,8.222947852E0
1.595986792E0,5.754771758E0,2.643706291E0,-3.645208032E0,7.307128200E0
1.605990792E0,4.842735339E0,1.300495605E0,-3.256840646E0,5.979162599E0
1.615993792E0,3.889266428E0,-7.430039388E-1,-3.311510943E0,5.161836197E0
1.625996792E0,2.639172652E0,-3.829004146E0,-1.758023858E0,4.971634834E0
1.635999792E0,1.280345516E0,-6.353652940E0,3.798444843E-1,6.492493524E0
1.646003792E0,-4.755243744E-1,-7.938627867E0,1.763137833E0,8.145955490E0
1.656006792E0,-2.501915404E0,-9.365594069E0,2.806580483E0,1.009211707E1
1.666009792E0,-4.437908041E0,-9.451357520E0,4.418568960E0,1.133785422E1
1.676013792E0,-5.425222099E0,-7.788000083E0,5.285792903E0,1.086395815E1
1.686016792E0,-5.635275720E0,-5.372000742E0,4.713711848E0,9.101307807E0
1.696019792E0,-5.227493824E0,-2.977128561E0,4.081610295E0,7.269768135E0
1.706023792E0,-4.298158418E0,-4.900598216E-1,2.594684404E0,5.044473369E0
1.716026792E0,-3.680199525E0,1.423260237E0,-3.054412964E-1,3.957629673E0
1.726029792E0,-3.408058706E0,2.647357292E0,-3.022387471E0,5.268604256E0
1.736032792E0,-2.894295442E0,2.991667662E0,-4.012593562E0,5.781689078E0
1.746036792E0,-1.607244924E0,2.744984159E0,-3.654486394E0,4.844940153E0
1.756039792E0,8.433183320E-2,2.187573768E0,-2.345166024E0,3.208176200E0
1.766042792E0,1.481521455E0,1.622495924E0,-1.380167427E0,2.594660088E0
1.776046792E0,2.497072448E0,1.371891278E0,-1.090857722E0,3.050807607E0
1.786049792E0,2.932157040E0,1.174391044E0,-8.673560894E-1,3.275522221E0
1.796052792E0,3.054738069E0,1.162259826E0,-7.912341124E-1,3.362785154E0
1.806056792E0,2.836791877E0,1.152956906E0,-1.254026321E0,3.308969597E0
1.816059792E0,2.558018561E0,1.037073278E0,-2.493449221E0,3.719713559E0
1.826062792E0,2.526794430E0,1.157407222E0,-3.955589056E0,4.834352733E0
1.836066792E0,2.695802643E0,1.306936314E0,-4.962434860E0,5.796653704E0
1.846069792E0,2.874964254E0,1.484402817E0,-5.226858231E0,6.147269163E0
1.856072792E0,2.894124703E0,1.641987033E0,-4.481083589E0,5.581414637E0
1.866075792E0,2.562617396E0,1.719766695E0,-3.682457135E0,4.804695199E0
1.876079792E0,2.121852526E0,1.852732379E0,-3.467187505E0,4.467243513E0
1.886082792E0,1.137960040E0,1.676855734E0,-3.497611445E0,4.042286980E0
1.896085792E0,-2.548063092E-1,1.359608617E0,-2.230718034E0,2.624798048E0
1.906089792E0,-1.697970614E0,7.708255756E-1,4.967773953E-1,1.929783422E0
1.916092792E0,-1.850554584E0,-2.902475989E-1,3.456013184E0,3.931007894E0
1.926095792E0,-1.831964970E0,-1.734792286E0,4.622512241E0,5.266233886E0
1.936099792E0,-2.591635666E0,-3.646524240E0,3.829079868E0,5.888596360E0
1.946103667E0,-4.560204603E0,-5.782285831E0,5.600591791E-1,7.385388395E0
1.956106667E0,-6.869328829E0,-8.050008554E0,-3.351859070E0,1.110068806E1
1.966110667E0,-6.735647446E0,-9.073123358E0,-1.869752455E0,1.145366702E1
1.976113667E0,-6.256956950E0,-7.342894825E0,3.669896438E0,1.032161589E1
1.986116667E0,-6.175358471E0,-4.289933140E0,7.575122842E0,1.067338113E1
1.996119667E0,-5.718091589E0,-1.856991491E0,8.811826494E0,1.066739307E1
2.006123667E0,-5.262426260E0,2.203698635E-2,8.333849359E0,9.856300569E0
2.016126667E0,-5.205397196E0,1.217903684E0,7.540182804E0,9.243040954E0
2.026129667E0,-4.966951250E0,1.790527360E0,6.960909090E0,8.736752732E0
2.036133667E0,-4.612896495E0,1.915101705E0,6.562549982E0,8.247029215E0
2.046136667E0,-3.993821368E0,1.615993820E0,6.378946241E0,7.697597047E0
2.056139667E0,-3.313346384E0,1.030050187E0,6.355786589E0,7.241221639E0
2.066143667E0,-2.744171688E0,4.857556862E-1,6.586081517E0,7.151426892E0
2.076146667E0,-2.081112197E0,-8.053370118E-3,6.888084358E0,7.195609700E0
2.086149667E0,-1.888487665E0,-8.290387005E-1,6.966424184E0,7.265311882E0
2.096152667E0,-1.902550364E0,-1.747776028E0,6.698138727E0,7.179100315E0
2.106156667E0,-1.834425332E0,-2.484450940E0,6.269480517E0,6.988848169E0
2.116159667E0,-1.561413278E0,-2.796391709E0,5.879264241E0,6.695040406E0
2.126162667E0,-1.177926856E0,-2.946572181E0,5.795414000E0,6.607315848E0
2.136166667E0,-8.212712592E-1,-2.568789425E0,5.166258273E0,5.827811779E0
2.146169667E0,-5.113296533E-1,-1.973589649E0,4.485059988E0,4.926690290E0
2.156172667E0,-2.884066030E-1,-1.387381722E0,3.713319908E0,3.974512694E0
2.166176667E0,-1.967880428E-1,-6.708019352E-1,2.331356655E0,2.433911384E0
2.176179667E0,-6.139810324E-2,2.069586897E-1,1.207217167E0,1.226366550E0
2.186182667E0,1.243270075E-1,1.184458196E0,4.949878550E-1,1.289733073E0
2.196186667E0,2.750062466E-1,2.108339319E0,7.097427835E-1,2.241530267E0
2.206189667E0,6.698432842E-1,3.255423866E0,1.474634312E0,3.636072184E0
2.216192667E0,1.213998329E0,4.301676103E0,1.970736647E0,4.884875860E0
2.226195667E0,1.916896508E0,4.673300571E0,2.286502664E0,5.544576168E0
2.236199667E0,2.556376371E0,4.581302819E0,2.214145271E0,5.694368705E0
2.246202667E0,3.243385618E0,4.075522174E0,2.342774075E0,5.711218926E0
2.256205667E0,3.869345257E0,3.015580435E0,2.178395248E0,5.367584553E0
2.266209667E0,3.717523764E0,8.556113720E-1,1.678493393E0,4.167660474E0
2.276212667E0,3.593369249E0,-1.069336460E0,1.637135013E0,4.090964932E0
2.286215667E0,3.817620495E0,-2.191975552E0,1.713103209E0,4.723738527E0
2.296219667E0,3.753110796E0,-2.814192388E0,1.397461152E0,4.894733610E0
2.306222667E0,3.733690146E0,-3.101937379E0,1.461070088E0,5.069238938E0
2.316225667E0,4.256648449E0,-2.514240165E0,1.284412839E0,5.107854341E0
2.326228667E0,4.711548963E0,-1.581609854E0,6.437734732E-1,5.011449655E0
2.336232667E0,4.944956363E0,-4.024088895E-1,6.995111793E-2,4.961795996E0
2.346235667E0,5.087768759E0,8.913700193E-1,-3.545199010E-1,5.177414008E0
2.356238667E0,5.053967174E0,1.953301565E0,-7.364304990E-1,5.468116777E0
2.366242667E0,4.768357587E0,2.711560889E0,-9.554242203E-1,5.568000716E0
2.376245667E0,4.531929807E0,3.351265578E0,-1.038624252E0,5.731326992E0
2.386248667E0,4.250301297E0,3.610400142E0,-1.444610760E0,5.760811622E0
2.396252667E0,3.731493055E0,3.425279049E0,-1.892170095E0,5.407114262E0
2.406255667E0,2.974776810E0,2.653353027E0,-2.333503022E0,4.618962623E0
2.416258667E0,2.385483600E0,2.248574846E0,-2.785747146E0,4.301977220E0
2.426261667E0,2.588799766E0,2.429127510E0,-3.279146897E0,4.832737222E0
2.436265667E0,3.203236297E0,2.889741338E0,-3.495118192E0,5.552222884E0
2.446268667E0,3.928589246E0,3.264660128E0,-3.340828298E0,6.103519716E0
2.456271667E0,4.640926585E0,3.597323429E0,-2.938924608E0,6.566293724E0
2.466275667E0,4.895604694E0,3.679469208E0,-2.609080249E0,6.656781408E0
2.476278667E0,4.633463199E0,3.479126058E0,-2.611290497E0,6.355480894E0
2.486281667E0,4.142696157E0,2.877162808E0,-2.522143847E0,5.639255877E0
2.496285667E0,3.934901900E0,2.132498844E0,-2.404963891E0,5.080832176E0
2.506288667E0,3.881119795E0,1.360014414E0,-2.265037681E0,4.695010731E0
2.516291667E0,3.992204905E0,5.156086457E-1,-1.575487819E0,4.322697555E0
2.526294667E0,4.048287890E0,-5.921241403E-1,-5.954275247E-1,4.134462453E0
2.536298667E0,4.295048284E0,-1.738427500E0,-1.527335121E0,4.878762395E0
2.546301667E0,5.015011269E0,-2.691314321E0,-3.749481429E0,6.815579344E0
2.556304667E0,5.743876641E0,-3.062554627E0,-5.999384762E0,8.852343036E0
2.566308667E0,5.871342434E0,-3.003905885E0,-8.088821202E0,1.043672080E1
2.576311667E0,4.145930251E0,-3.231968345E0,-1.177131400E1,1.289178771E1
2.586314667E0,4.699480310E-1,-4.134761485E0,-1.659072831E1,1.710465929E1
2.596318667E0,6.129636168E-3,-3.795875577E0,-1.347049967E1,1.399510880E1
2.606321667E0,1.756050130E0,-2.502787224E0,-6.913120966E0,7.559027546E0
2.616324667E0,2.737029314E0,-1.835372581E0,-3.177400082E0,4.577749803E0
2.626327667E0,2.301133421E0,-2.460620613E0,-1.721441630E0,3.783282980E0
2.636331667E0,1.533711802E0,-3.492947706E0,-1.006572447E0,3.945395247E0
2.646334667E0,1.528243778E0,-4.187843093E0,-1.556331756E0,4.721835168E0
2.656337667E0,2.129117399E0,-4.564348817E0,-3.137272103E0,5.933708560E0
2.666341667E0,2.621191294E0,-5.163969088E0,-6.505026829E0,8.709339504E0
2.676344667E0,2.601568331E0,-6.260748285E0,-1.192427249E1,1.371690203E1
2.686347667E0,2.847319788E0,-6.476880671E0,-1.127391593E1,1.331008616E1
2.696351667E0,2.663489468E0,-6.109413573E0,-5.489876516E0,8.634689023E0
2.706354667E0,1.716810343E0,-5.413828214E0,-1.309484530E0,5.828526694E0
2.716357667E0,9.286673614E-1,-4.347029446E0,8.278791976E-1,4.521556374E0
2.726360667E0,2.639655340E-1,-3.995955602E0,1.487730906E0,4.272081720E0
2.736364667E0,-3.123623532E-1,-4.504073380E0,2.166665295E0,5.007862393E0
2.746367667E0,-5.050339562E-1,-5.291985104E0,2.808363883E0,6.012243620E0
2.756370667E0,-6.393602872E-1,-5.959777477E0,3.009568913E0,6.707103264E0
2.766374667E0,-7.343178999E-1,-6.717953771E0,3.248870307E0,7.498352080E0
2.776377667E0,-7.999833012E-1,-7.143745676E0,3.005250744E0,7.791316166E0
2.786380667E0,-9.822147006E-1,-7.057909135E0,2.507217075E0,7.554135592E0
2.796384667E0,-1.255807090E0,-6.810066129E0,2.644656463E0,7.412709352E0
2.806387667E0,-1.624199218E0,-6.479538231E0,3.394378853E0,7.492946455E0
2.816390667E0,-2.445249453E0,-5.755937108E0,1.936962690E0,6.546898605E0
2.826393667E0,-3.056723784E0,-4.259287882E0,-1.739637873E0,5.523715551E0
2.836397667E0,-3.337518189E0,-2.437086155E0,-4.728357954E0,6.279791838E0
2.846400667E0,-3.831665799E0,-1.295947641E0,-4.367332149E0,5.952708054E0
2.856403667E0,-4.122255460E0,-4.929863530E-1,-1.295305617E0,4.349004744E0
2.866407667E0,-3.997909157E0,1.354125683E0,5.003219190E0,6.545925164E0
2.876410667E0,-4.808830844E0,2.285185432E-1,2.512997632E0,5.430675088E0
2.886413667E0,-4.491745110E0,7.992997617E-1,5.734569043E0,7.328024041E0
2.896417667E0,-4.518073953E0,1.299527891E0,7.428041979E0,8.790766328E0
2.906420667E0,-4.837062955E0,8.098481387E-1,5.543204877E0,7.401361520E0
2.916423667E0,-4.367810451E0,1.715987055E0,5.539836881E0,7.260314895E0
2.926426667E0,-3.730878512E0,1.933137442E0,4.625790775E0,6.249353177E0
2.936430667E0,-3.366950149E0,1.825377350E0,3.627295379E0,5.275000241E0
2.946433042E0,-3.345916545E0,1.596775777E0,2.760992374E0,4.622545759E0
2.956436042E0,-3.566496908E0,1.575860871E0,2.381840200E0,4.569069973E0
2.966440042E0,-3.999568596E0,1.592841185E0,2.817764160E0,5.145239242E0
2.976443042E0,-4.320470808E0,1.780731520E0,3.700613909E0,5.960873766E0
2.986446042E0,-4.524466714E0,2.171382244E0,4.614074416E0,6.817285575E0
2.996450042E0,-4.650130395E0,2.557160482E0,5.191163903E0,7.423675983E0
3.006453042E0,-4.708710725E0,2.958037401E0,5.283551080E0,7.670583679E0
3.016456042E0,-4.556780766E0,3.526869158E0,5.303695908E0,7.831490745E0
3.026459042E0,-4.307633246E0,4.100733029E0,5.445373943E0,8.063734429E0
3.036463042E0,-4.020474731E0,4.530030339E0,5.302768539E0,8.050139509E0
3.046466042E0,-3.861592433E0,4.676119514E0,5.025505267E0,7.876147093E0
3.056469042E0,-3.698829923E0,4.600196927E0,4.820640173E0,7.621136808E0
3.066473042E0,-3.505976472E0,4.471696177E0,4.573711087E0,7.294297144E0
3.076476042E0,-3.268891758E0,4.254180340E0,4.152024512E0,6.784026182E0
3.086479042E0,-2.913372568E0,4.073891970E0,3.834499067E0,6.307750677E0
3.096483042E0,-2.392260815E0,3.778596470E0,3.312403521E0,5.565314023E0
3.106486042E0,-1.705704727E0,3.298068779E0,1.619818192E0,4.050987196E0
3.116489042E0,-6.481363732E-1,2.383634418E0,-2.722598386E0,3.676184947E0
3.126492042E0,1.969964083E0,6.563341695E-1,-1.451816752E1,1.466590335E1
3.136496042E0,7.904257933E0,-2.124303387E0,-2.799954886E1,2.917129916E1
3.146499042E0,1.134452106E1,-7.267461650E0,-2.086610948E1,2.483764646E1
3.156502042E0,8.489450784E0,-1.202759279E1,-8.460990046E0,1.698005051E1
3.166506042E0,4.045334753E0,-1.292570055E1,-8.595674812E0,1.604132456E1
3.176509042E0,2.643000824E0,-1.167665109E1,-1.274981748E1,1.748963921E1
3.186512042E0,2.930823875E0,-7.821062579E0,-1.028639722E1,1.325023457E1
3.196515042E0,1.585779211E0,-3.076262839E0,-5.113273144E0,6.174435278E0
3.206519042E0,1.236341125E-1,-4.449286723E-1,-7.650941348E-1,8.936531499E-1
3.216522042E0,-1.180920045E0,5.884532583E-1,1.307852280E0,1.857774738E0
3.226525042E0,-2.115586065E0,2.407220916E0,3.358382809E0,4.642106421E0
3.236529042E0,-3.881439638E0,1.474245034E0,5.797825391E0,7.131181624E0
3.246532042E0,-6.060146688E0,-3.219237202E-1,4.261829667E0,7.415672921E0
3.256535042E0,-8.611145375E0,-2.564479442E0,2.759743993E0,9.399179027E0
3.266539042E0,-1.037303892E1,-4.197937726E0,4.001821821E0,1.188432562E1
3.276542042E0,-9.629926223E0,-4.996884901E0,7.860133674E0,1.339723998E1
3.286545042E0,-6.955553041E0,-5.124704450E0,1.137598492E1,1.428479425E1
3.296548042E0,-4.121449714E0,-5.010446348E0,8.973279812E0,1.107297029E1
3.306552042E0,-1.256282177E0,-4.061635621E0,1.605487251E0,4.544526173E0
3.316555042E0,1.168523656E0,-2.284470318E0,1.781132347E0,3.123569209E0
3.326558042E0,1.045269320E0,-1.120225947E0,5.628170768E0,5.832992398E0
3.336562042E0,1.549058989E-1,-3.276703638E-1,5.734966654E0,5.746408115E0
3.346565042E0,-5.865201688E-1,5.271031022E-2,4.931722945E0,4.966757040E0
3.356568042E0,-1.273863000E0,1.352957994E-1,4.705015869E0,4.876290211E0
3.366572042E0,-1.860346039E0,3.956986248E-1,4.522412002E0,4.906085517E0
3.376575042E0,-2.499720067E0,7.834473753E-1,4.654238648E0,5.340817128E0
3.386578042E0,-2.816139803E0,8.979446286E-1,5.385911268E0,6.143694990E0
3.396581042E0,-2.785312990E0,7.109120804E-1,5.889723741E0,6.553793572E0
3.406585042E0,-2.480682410E0,5.451347458E-1,5.471320378E0,6.032106082E0
3.416588042E0,-1.946610011E0,3.883287942E-1,4.293208165E0,4.729875912E0
3.426591042E0,-1.444341788E0,6.364811182E-2,2.678979034E0,3.044191674E0
3.436595042E0,-9.084593841E-1,-4.449163932E-1,1.294244932E0,1.642656079E0
3.446598042E0,-1.471381652E-1,-9.414391422E-1,6.726935095E-1,1.166393525E0
3.456601042E0,6.018948376E-1,-1.498452507E0,6.489871430E-1,1.740351005E0
3.466605042E0,1.457317052E0,-1.833452355E0,5.124201955E-1,2.397476796E0
3.476608042E0,2.212056645E0,-1.553185369E0,5.197847271E-1,2.752409045E0
3.486611042E0,2.474029448E0,-1.026155941E0,9.593152499E-1,2.845013792E0
3.496614042E0,2.456315308E0,-1.633425540E-1,4.431010666E0,5.068927027E0
3.506618042E0,2.589909275E0,1.453811354E0,5.812249888E0,6.527131549E0
3.516621042E0,2.962062625E0,2.356458898E0,1.948643673E0,4.257220419E0
3.526624042E0,3.263210895E0,2.504403979E0,-2.287258855E0,4.706605752E0
3.536628042E0,2.987198051E0,2.467754801E0,-5.274549876E0,6.544772139E0
3.546631042E0,2.278615793E0,2.737559949E0,-6.298768051E0,7.236076517E0
3.556634042E0,1.484689038E0,2.807751095E0,-6.552335481E0,7.281542969E0
3.566637042E0,9.872851136E-1,2.938279075E0,-6.157488796E0,6.893684362E0
3.576641042E0,8.135599512E-1,2.832933884E0,-5.085288370E0,5.877716562E0
3.586644042E0,8.246521193E-1,2.618357441E0,-4.006056959E0,4.856370988E0
3.596647042E0,8.326569575E-1,2.266387804E0,-2.804501798E0,3.700683939E0
3.606651042E0,6.947708416E-1,1.791536590E0,-1.304562344E0,2.322540158E0
3.616654042E0,5.016943190E-1,1.096917776E0,-7.406945810E-1,1.415469625E0
3.626657042E0,3.073732165E-1,4.497842002E-1,-6.010823670E-1,8.112238488E-1
3.636661042E0,-1.730600417E-2,-6.383873105E-2,-4.347928163E-1,4.397950369E-1
3.646664042E0,-6.903982937E-2,-2.254867619E-1,-9.405024183E-1,9.696162007E-1
3.656667042E0,4.705020547E-2,-1.498372400E-1,-1.464211797E0,1.472610303E0
3.666670042E0,4.658886015E-2,-1.015883553E-1,-2.142267787E0,2.145181109E0
3.676674042E0,-1.345105183E-1,-7.121557832E-2,-2.727316212E0,2.731559712E0
3.686677042E0,-3.584354889E-1,-3.732570112E-2,-2.931553900E0,2.953621079E0
3.696680042E0,-5.032423693E-1,-1.203222495E-1,-2.785774043E0,2.833419726E0
3.706684042E0,-4.163641468E-1,-2.741589850E-1,-2.427275112E0,2.477940015E0
3.716687042E0,-1.504371643E-1,-6.553991997E-1,-2.052114832E0,2.159480200E0
3.726690042E0,3.043095678E-1,-8.666678721E-1,-1.806608958E0,2.026710004E0
3.736694042E0,9.145092058E-1,-8.138914883E-1,-1.677712936E0,2.076888812E0
3.746697042E0,1.462522244E0,-9.799354559E-1,-1.631078467E0,2.399929536E0
3.756700042E0,2.133319501E0,-1.243135005E0,-1.671625400E0,2.981739125E0
3.766703042E0,3.168460274E0,-1.294443153E0,-1.696015013E0,3.819841686E0
3.776707042E0,4.211202427E0,-1.218835146E0,-1.911486079E0,4.782631496E0
3.786710042E0,5.122300660E0,-1.239288121E0,-2.398557974E0,5.790240017E0
3.796713042E0,5.756078610E0,-1.380334073E0,-3.076811601E0,6.671171767E0
3.806717042E0,5.957566060E0,-1.598159228E0,-3.635981711E0,7.160102603E0
3.816720042E0,6.016961492E0,-1.732023044E0,-3.405012015E0,7.127260080E0
3.826723042E0,5.318390545E0,-2.343435979E0,-2.687906271E0,6.403265597E0
3.836726042E0,3.111637909E0,-4.025384054E0,-4.305638176E0,6.665172718E0
3.846730042E0,8.554353708E-1,-6.592160867E0,-1.082792657E1,1.270560303E1
3.856733042E0,3.272341615E-1,-8.627376076E0,-1.602180124E1,1.819991251E1
3.866736042E0,1.174688375E0,-8.940761107E0,-1.455676031E1,1.712356192E1
3.876740042E0,2.399962475E0,-7.705744962E0,-1.052736682E1,1.326513390E1
3.886743042E0,3.914146331E0,-5.804231601E0,-7.233437287E0,1.006639265E1
3.896746042E0,4.631255583E0,-4.522727167E0,-4.881150669E0,8.107355990E0
3.906749042E0,3.958492491E0,-4.287764407E0,-3.343729101E0,6.725705221E0
3.916753042E0,2.678416532E0,-4.239581012E0,-1.502348653E0,5.234979823E0
3.926756042E0,2.211364627E0,-3.805436944E0,9.444288236E-1,4.501491936E0
3.936759042E0,1.733930991E0,-3.461184461E0,3.129540914E0,4.977985626E0
3.946763625E0,1.227817346E0,-3.129966007E0,4.416414846E0,5.550580396E0
3.956766625E0,4.817181838E-1,-3.379561424E0,5.684110495E0,6.630429846E0
3.966769625E0,-2.796328560E-1,-4.296749239E0,5.937935203E0,7.334802181E0
3.976773625E0,-4.971963483E-1,-4.950004849E0,5.339756856E0,7.298133700E0
3.986776625E0,-2.966198945E-1,-4.804285219E0,4.140377151E0,6.349162368E0
3.996779625E0,-2.170460138E-1,-4.424029675E0,3.106245607E0,5.409982376E0
4.006782625E0,-2.671902734E-1,-4.137289821E0,2.089938716E0,4.642887199E0
4.016786625E0,-3.385336134E-1,-4.096310779E0,1.422047524E0,4.349320196E0
4.026789625E0,-7.506556052E-1,-4.477018898E0,1.424485813E0,4.757766480E0
4.036792625E0,-1.283610601E0,-4.670385734E0,2.031018809E0,5.252161125E0
4.046796625E0,-1.788354243E0,-4.509338213E0,2.587943734E0,5.498162855E0
4.056799625E0,-1.854624246E0,-3.623773894E0,2.683516474E0,4.875718305E0
4.066802625E0,-1.661286938E0,-2.042701984E0,2.440682485E0,3.590186162E0
4.076806625E0,-1.513949967E0,-5.240409154E-1,2.529028651E0,2.993768411E0
4.086809625E0,-1.523692013E0,4.532749879E-1,3.041561661E0,3.431937194E0
4.096812625E0,-1.558639944E0,1.177251502E0,3.968184836E0,4.422869031E0
4.106815625E0,-1.455283683E0,1.724042180E0,5.103588985E0,5.580035176E0
4.116819625E0,-1.105691231E0,1.985148425E0,6.038772776E0,6.452142591E0
4.126822625E0,-2.646490735E-1,2.254016265E0,7.252486346E0,7.599288562E0
4.136825625E0,5.388793945E-2,2.361644209E0,8.310925350E0,8.640124273E0
4.146829625E0,-2.364958996E-1,2.681231382E0,7.685164517E0,8.142891727E0
4.156832625E0,-4.131949559E-1,3.103145413E0,6.583688836E0,7.290075460E0
4.166835625E0,-7.872009954E-1,3.481276079E0,6.067957399E0,7.039820704E0
4.176838625E0,-1.351386847E0,3.831426063E0,5.854866149E0,7.126396685E0
4.186842625E0,-1.799106980E0,4.229564146E0,5.908835950E0,7.486009690E0
4.196845625E0,-2.277810339E0,4.679074112E0,6.224031279E0,8.112996971E0
4.206848625E0,-3.025617181E0,5.219295443E0,6.669169866E0,8.992954517E0
4.216852625E0,-3.563387359E0,5.596464241E0,7.293646651E0,9.859788179E0
4.226855625E0,-3.925239668E0,5.926727260E0,7.767192181E0,1.052914417E1
4.236858625E0,-4.101845169E0,6.258390688E0,7.899429887E0,1.088088141E1
4.246862625E0,-4.069649815E0,6.428406669E0,7.569771470E0,1.073256270E1
4.256865625E0,-4.028320233E0,6.008369009E0,7.121887615E0,1.015131249E1
4.266868625E0,-3.869113122E0,5.515984334E0,6.765869365E0,9.548461017E0
4.276871625E0,-3.586314876E0,5.096130277E0,6.110869530E0,8.727824735E0
4.286875625E0,-3.539370505E0,4.307695227E0,5.934940259E0,8.142904741E0
4.296878625E0,-3.641710228E0,3.155352863E0,5.241209053E0,7.119591098E0
4.306881625E0,-3.348018619E0,2.183636838E0,3.549821526E0,5.345907910E0
4.316885625E0,-1.859491468E0,3.118492016E0,1.001069632E-1,3.632178737E0
4.326888625E0,1.129247908E-1,3.878659871E0,-8.496265129E0,9.340410887E0
4.336891625E0,5.813140419E0,4.204849135E0,-2.854448129E1,2.943230827E1
4.346894625E0,1.299418548E1,-2.232773915E0,-4.185484210E1,4.388236482E1
4.356898625E0,1.165300261E1,-1.355018319E1,-2.045007073E1,2.715889039E1
4.366901625E0,5.190896101E0,-1.960009842E1,1.542025373E0,2.033438228E1
4.376904625E0,-6.095084971E-1,-2.100292264E1,6.507038856E-1,2.102183806E1
4.386908625E0,-8.215634738E-1,-1.630295408E1,-8.190456920E0,1.826321064E1
4.396911625E0,2.771662080E-1,-6.566241914E0,-8.766148045E0,1.095617203E1
4.406914625E0,-1.504409650E-1,1.023110712E-1,-2.563903199E0,2.570350103E0
4.416917625E0,-1.077580449E0,3.459122148E0,9.716654465E-1,3.751111755E0
4.426921625E0,-3.330872536E0,3.233181058E0,1.157193798E0,4.784064077E0
4.436924625E0,-7.001755400E0,-7.740877372E-1,-1.991418394E-1,7.047229809E0
4.446927625E0,-9.402687051E0,-4.401314412E0,-5.397801581E-1,1.039583835E1
4.456931625E0,-9.695196353E0,-8.809493455E0,3.045149513E0,1.344904988E1
4.466934625E0,-7.887499813E0,-1.153983326E1,7.803450766E0,1.600856798E1
4.476937625E0,-5.374176491E0,-1.039517999E1,9.441082792E0,1.503581006E1
4.486941625E0,-3.196468145E0,-6.375171279E0,8.510139402E0,1.110327384E1
4.496944625E0,-1.558331357E0,-2.394841776E0,8.130942789E0,8.618346384E0
4.506947625E0,1.346394494E-2,3.062438267E-1,8.718396174E0,8.723783491E0
4.516950625E0,3.912290132E-1,1.759573955E0,9.404902561E0,9.576082332E0
4.526954625E0,2.774053591E-1,1.572144381E0,1.123369761E1,1.134656572E1
4.536957625E0,6.088579944E-1,1.191388900E0,1.339614648E1,1.346279525E1
4.546960625E0,1.146583295E0,1.396484667E0,1.410619258E1,1.422144479E1
4.556964625E0,1.568899176E0,6.434708798E-1,1.300636173E1,1.311643796E1
4.566967625E0,1.531881331E0,5.319329023E-2,1.091619263E1,1.102328225E1
4.576970625E0,6.790117183E-1,-7.358469468E-1,8.920398763E0,8.976415863E0
4.586973625E0,4.561412930E-3,-1.412965044E0,7.509483168E0,7.641258304E0
4.596977625E0,-2.323873535E-2,-1.557073182E0,6.741735567E0,6.919249626E0
4.606980625E0,1.626742172E-1,-1.472478590E0,5.678110667E0,5.868185141E0
4.616983625E0,3.968840016E-1,-8.831576049E-1,4.631448541E0,4.731574775E0
4.626987625E0,7.089588180E-1,-1.001811059E0,3.526839337E0,3.734279544E0
4.636990625E0,1.130971229E0,-3.254533335E0,2.711039318E0,4.384155259E0
4.646993625E0,2.419908205E0,-3.972408280E0,4.721708500E-1,4.675353310E0
4.656997625E0,4.336472006E0,-3.006036610E0,-2.563193055E0,5.866106392E0
4.667000625E0,5.881641719E0,-8.147533679E-1,-6.141365098E0,8.542476083E0
4.677003625E0,6.476674265E0,2.180490451E0,-8.789593626E0,1.113367883E1
4.687006625E0,5.686504930E0,4.262735986E0,-8.757971299E0,1.127871082E1
4.697010625E0,4.135926543E0,4.911951170E0,-7.661345884E0,9.996468047E0
4.707013625E0,2.696117224E0,5.135961510E0,-5.495776942E0,7.990664109E0
4.717016625E0,1.820629850E0,5.523411468E0,-3.611892352E0,6.846059717E0
4.727020625E0,1.726278740E0,6.061263506E0,-2.562809477E0,6.803451036E0
4.737023625E0,2.154724403E0,6.644192900E0,-1.473528750E0,7.138586942E0
4.747026625E0,2.620502200E0,7.044645896E0,-7.121908665E-1,7.549919431E0
4.757029625E0,2.783043686E0,6.926306437E0,-2.627816190E-1,7.469143672E0
4.767033625E0,3.105626972E0,6.513994703E0,1.107103041E-1,7.217291920E0
4.777036625E0,3.500063183E0,5.358320596E0,3.317569828E-1,6.408752187E0
4.787039625E0,3.265426405E0,3.401711261E0,7.958659843E-1,4.782055184E0
4.797043625E0,2.893380060E0,1.428100562E0,9.448673648E-1,3.362126370E0
4.807046625E0,2.426715387E0,-1.651224464E-1,8.356185722E-1,2.571861464E0
4.817049625E0,1.553305237E0,-9.673902547E-1,3.570669481E-1,1.864429636E0
4.827053625E0,8.176642580E-1,-1.302155045E0,-1.160672307E-4,1.537589872E0
4.837056625E0,7.358245812E-1,-1.104172416E0,-5.193263054E-2,1.327904943E0
4.847059625E0,1.220796156E0,-2.368864936E-1,-2.658085763E-1,1.271657448E0
4.857062625E0,1.369237081E0,-1.278078550E-1,-1.034434722E0,1.720813826E0
4.867066625E0,1.301554098E0,-5.419854355E-1,-1.601543596E0,2.133713470E0
4.877069625E0,1.009764149E0,-1.814568188E0,-1.057719796E0,2.330461867E0
4.887072625E0,1.124411092E0,-2.551510318E0,-6.994448134E-1,2.874670112E0
4.897076625E0,1.662380952E0,-2.337482929E0,-1.272608187E0,3.137972032E0
4.907079625E0,1.508381810E0,-2.964330760E0,-1.217033911E0,3.541700732E0
4.917082625E0,6.130840695E-1,-4.173539634E0,-1.813590825E0,4.591668198E0
4.927085625E0,-1.176075335E0,-5.925412222E0,-4.044980412E0,7.270180859E0
4.937089625E0,-2.252348639E0,-6.618830017E0,-7.419498612E0,1.019465276E1
4.947091750E0,-1.871230339E0,-5.806774555E0,-1.086310576E1,1.245902085E1
4.957094750E0,3.385352214E-1,-4.505919930E0,-9.977319245E0,1.095284529E1
4.967098750E0,2.522622149E0,-3.281975487E0,-7.319079115E0,8.408561393E0
4.977101750E0,3.755653750E0,-3.283723220E0,-4.953709645E0,7.030434732E0
4.987104750E0,4.660792500E0,-5.034251533E0,-2.771202197E0,7.399069998E0
4.997107750E0,6.261125430E0,-6.380668831E0,-1.098372271E0,9.006722380E0
5.007111750E0,8.698367706E0,-5.328315609E0,-1.687699103E0,1.033928799E1
5.017114750E0,1.102066717E1,-2.528253602E0,-4.842524547E0,1.230029330E1
5.027117750E0,1.212214460E1,-2.388958308E0,-8.187145641E0,1.482170251E1
5.037121750E0,1.226493361E1,-2.896907685E0,-1.038655417E1,1.633098828E1
5.047124750E0,1.066140138E1,-4.828824813E0,-9.073107571E0,1.480892668E1
5.057127750E0,8.429469461E0,-5.752236405E0,-6.364376734E0,1.202703082E1
5.067131750E0,5.688445621E0,-6.190857686E0,-3.527537495E0,9.117491609E0
5.077134750E0,3.544793798E0,-6.215527673E0,-8.533996627E-2,7.155810942E0
5.087137750E0,2.671684633E0,-6.065856494E0,3.269389941E0,7.390630851E0
5.097140750E0,1.802188755E0,-5.461118740E0,5.408895503E0,7.894799096E0
5.107144750E0,8.253431140E-1,-5.329081594E0,6.184808741E0,8.205617653E0
5.117147750E0,1.903268695E-4,-5.119586383E0,6.353747081E0,8.159673200E0
5.127150750E0,-5.896741569E-2,-3.416233406E0,5.428843864E0,6.414551702E0
5.137154750E0,-2.853678051E-1,-2.556706738E0,4.781010962E0,5.429203436E0
5.147157750E0,-2.301592720E-1,-1.523266336E0,4.141576999E0,4.418820393E0
5.157160750E0,-4.141287562E-1,-1.397520794E0,3.855037705E0,4.121393296E0
5.167163750E0,-6.945702821E-1,-1.730281743E0,3.458622211E0,3.929169173E0
5.177167750E0,-1.246668477E0,-2.419049249E0,3.754318246E0,4.636904900E0
5.187170750E0,-1.960161226E0,-3.383098404E0,4.206324388E0,5.742887053E0
5.197173750E0,-2.910256002E0,-4.208766185E0,4.626633943E0,6.898481314E0
5.207177750E0,-3.986352135E0,-4.588334681E0,5.322720408E0,8.079305108E0
5.217180750E0,-4.553253141E0,-4.151199762E0,5.453315631E0,8.228196947E0
5.227183750E0,-4.519420859E0,-2.837599377E0,4.924452517E0,7.261361285E0
5.237187750E0,-4.523610974E0,-1.950810651E0,4.407520354E0,6.610215890E0
5.247190750E0,-4.543174880E0,-1.258992653E0,4.014077877E0,6.191794707E0
5.257193750E0,-4.025735471E0,-3.601709425E-2,3.827030711E0,5.554638366E0
5.267196750E0,-3.155763630E0,1.323144795E0,4.387095445E0,5.563826263E0
5.277200750E0,-2.205588163E0,2.840196126E0,4.837332220E0,6.027529857E0
5.287203750E0,-1.341976338E0,3.985490840E0,5.589864489E0,6.995114204E0
5.297206750E0,-4.958044186E-1,4.783128238E0,6.486857775E0,8.074866040E0
5.307210750E0,6.097634357E-1,5.529051692E0,6.562203827E0,8.602600951E0
5.317213750E0,1.386262565E0,6.353592129E0,5.734397720E0,8.670246481E0
5.327216750E0,1.265555861E0,7.028164349E0,5.054433782E0,8.748944314E0
5.337219750E0,2.074086329E-1,6.730881965E0,5.026557766E0,8.403218035E0
5.347223750E0,-1.153146940E0,5.726986374E0,5.492351058E0,8.018356498E0
5.357226750E0,-2.323399033E0,4.894774389E0,6.086414720E0,8.148708090E0
5.367229750E0,-3.352703700E0,4.264197789E0,6.793755906E0,8.693625492E0
5.377233750E0,-4.401174371E0,3.534174669E0,7.426173209E0,9.327849429E0
5.387236750E0,-5.417725968E0,3.096172024E0,7.912139980E0,1.007670556E1
5.397239750E0,-6.169917052E0,3.054480207E0,8.156980441E0,1.067398968E1
5.407243750E0,-6.534766352E0,3.180742058E0,8.018924171E0,1.082235816E1
5.417246750E0,-6.708515196E0,3.608869926E0,7.509457440E0,1.069673171E1
5.427249750E0,-6.881560035E0,3.699108835E0,6.914277545E0,1.043295302E1
5.437252750E0,-7.062462362E0,3.295829296E0,6.382938720E0,1.007386580E1
5.447256750E0,-7.188220768E0,2.508204085E0,4.962064147E0,9.087556665E0
5.457259750E0,-7.477062696E0,1.294812697E0,8.370976254E-1,7.634378751E0
5.467262750E0,-6.403559511E0,3.061391616E-1,-1.030525098E1,1.213661787E1
5.477266750E0,-1.703203142E0,-9.934477866E-1,-2.394869375E1,2.402972683E1
5.487269750E0,7.300533502E0,-3.491154950E0,-3.578491302E1,3.668849890E1
5.497272750E0,1.369992453E1,-8.280687643E0,-2.230329896E1,2.745350368E1
5.507275750E0,1.533685255E1,-1.313638041E1,-6.664617809E0,2.126501040E1
5.517279750E0,1.040973722E1,-1.556868764E1,-1.817490041E0,1.881621465E1
5.527282750E0,2.949094670E0,-1.511272995E1,-4.510410884E0,1.604479891E1
5.537285750E0,4.725520885E-1,-9.711266840E0,-5.557957402E0,1.119923656E1
5.547289750E0,2.470103627E-1,-2.838842495E0,-3.547054624E0,4.549905201E0
5.557292750E0,-7.456569667E-1,1.838647606E0,-5.426143035E-1,2.056953965E0
5.567295750E0,-2.059060885E0,5.163798349E0,1.168865133E0,5.680738581E0
5.577299750E0,-3.297479087E0,6.224780307E0,1.335992005E0,7.169807030E0
5.587302750E0,-5.678548039E0,3.048403196E0,2.133987838E0,6.789151196E0
5.597305750E0,-7.891014574E0,-1.404050379E0,2.233605097E0,8.320364187E0
5.607308750E0,-7.586833645E0,-5.997528856E0,4.165133385E0,1.052989711E1
5.617312750E0,-5.429808655E0,-1.038064381E1,8.726267695E0,1.460781763E1
5.627315750E0,-2.787381442E0,-1.197533505E1,1.082103153E1,1.637903747E1
5.637318750E0,-1.217027187E0,-1.102613432E1,9.466683072E0,1.458337689E1
5.647322750E0,-1.394170631E-1,-6.678659313E0,7.642321383E0,1.015032036E1
5.657325750E0,8.369099298E-1,-2.821541169E0,7.006102220E0,7.599143446E0
5.667328750E0,5.460714698E-1,-1.407647002E-1,7.391695687E0,7.413175694E0
5.677331750E0,-4.124918282E-3,1.734513958E0,7.809909600E0,8.000202725E0
5.687335750E0,-2.394072282E-1,3.888030034E0,7.837178675E0,8.751883395E0
5.697338750E0,-5.594344041E-1,5.115678688E0,8.120912476E0,9.614174678E0
5.707341750E0,-9.292507674E-1,5.754535530E0,8.030548435E0,9.923099029E0
5.717345750E0,-9.702410647E-1,6.226278949E0,7.552404070E0,9.835991282E0
5.727348750E0,-9.254730275E-1,4.986797284E0,7.198348145E0,8.805729016E0
5.737351750E0,-1.133532456E0,1.229673545E0,6.728682243E0,6.933408799E0
5.747354750E0,-8.756222981E-1,-1.286663432E0,5.978966285E0,6.178208076E0
5.757358750E0,-1.607981381E-1,-2.948252086E0,5.123705746E0,5.913578187E0
5.767361750E0,6.087828577E-1,-4.182429741E0,4.396882807E0,6.098845262E0
5.777364750E0,1.409565766E0,-4.547948547E0,3.625164946E0,5.984357319E0
5.787368750E0,1.973127134E0,-3.874777320E0,2.671757723E0,5.103471299E0
5.797371750E0,2.234720161E0,-2.882633463E0,1.783502516E0,4.060102351E0
5.807374750E0,2.312562096E0,-1.939309763E0,1.484548413E0,3.363443146E0
5.817378750E0,2.400705364E0,-4.947615677E-1,5.500393903E-1,2.512114365E0
5.827381750E0,2.435982785E0,1.034466589E0,-8.621275822E-1,2.783414669E0
5.837384750E0,2.194967719E0,2.525893666E0,-2.628662574E0,4.255336535E0
5.847387750E0,1.545977945E0,3.631595714E0,-5.136340994E0,6.477695118E0
5.857391750E0,8.125435589E-1,4.419289337E0,-7.128593202E0,8.426576192E0
5.867394750E0,5.341649307E-1,4.483319857E0,-6.924700792E0,8.266617819E0
5.877397750E0,8.408986080E-1,4.755083238E0,-5.135383805E0,7.049120079E0
5.887401750E0,1.382375628E0,5.108256817E0,-3.478915558E0,6.333095890E0
5.897404750E0,1.488958090E0,5.038351600E0,-2.212981675E0,5.700813182E0
5.907407750E0,1.598889838E0,4.584787760E0,-6.746546656E-1,4.902232801E0
5.917410750E0,1.285567664E0,3.952501434E0,1.158140316E0,4.314654192E0
5.927414750E0,9.152602807E-1,2.721799949E0,2.040247031E0,3.522570693E0
5.937417750E0,5.780358589E-1,1.118401031E0,2.336507029E0,2.654093332E0
5.947421500E0,3.729272282E-1,-7.494083941E-2,1.687557016E0,1.729895814E0
5.957425500E0,5.972501019E-1,-5.413311321E-1,4.615698481E-1,9.288669460E-1
5.967428500E0,9.851415244E-1,-2.597982234E-1,-7.592632914E-1,1.270621771E0
5.977431500E0,1.101260503E0,2.946295023E-2,-1.618385624E0,1.957757592E0
5.987435500E0,9.694584149E-1,1.378182882E-1,-1.985934583E0,2.214222136E0
5.997438500E0,8.457918504E-1,-1.806468040E-1,-2.220261751E0,2.382762968E0
6.007441500E0,7.339933795E-1,-8.290006936E-1,-2.313579219E0,2.564885423E0
6.017444500E0,9.054948458E-1,-1.448216738E0,-2.180431395E0,2.769753365E0
6.027448500E0,1.107058894E0,-1.993602329E0,-2.168781694E0,3.147005510E0
6.037451500E0,8.617734602E-1,-2.770151160E0,-3.190758631E0,4.312462358E0
6.047454500E0,8.272903830E-2,-3.347782391E0,-5.912508001E0,6.795015960E0
6.057458500E0,-8.599045439E-1,-3.412397633E0,-1.105555400E1,1.160211910E1
6.067461500E0,2.683415902E-1,-2.380476336E0,-1.251106280E1,1.273834240E1
6.077464500E0,2.847645478E0,-1.638785098E0,-8.242627532E0,8.873308853E0
6.087467500E0,4.565047852E0,-1.607435251E0,-4.367046220E0,6.518788435E0
6.097471500E0,6.196342374E0,-1.155905657E0,-1.955512690E0,6.599606548E0
6.107474500E0,7.296331108E0,-7.023751456E-1,9.491171211E-2,7.330674369E0
6.117477500E0,7.628304437E0,-1.110552313E0,3.444393012E0,8.443233874E0
6.127481500E0,7.813086977E0,-2.006883110E0,4.616007798E0,9.294053794E0
6.137484500E0,8.268568119E0,-2.722277082E0,2.830644406E0,9.153827561E0
6.147487500E0,8.729656157E0,-3.383978410E0,8.239966464E-1,9.398785931E0
6.157491500E0,8.954925987E0,-4.052174242E0,-1.457419671E0,9.936543042E0
6.167494500E0,8.550206863E0,-4.754938812E0,-6.375482351E0,1.167742505E1
6.177497500E0,7.714474854E0,-6.021108338E0,-1.614009275E1,1.887510164E1
6.187500500E0,6.539489148E0,-6.989658680E0,-1.886130038E1,2.115109687E1
6.197504500E0,5.721609274E0,-5.936741787E0,-1.125783258E1,1.395422911E1
6.207507500E0,4.342682334E0,-5.188633813E0,-6.542852467E0,9.412211701E0
6.217510500E0,2.224823163E0,-5.543955075E0,-3.258056867E0,6.804425805E0
6.227514500E0,1.134671201E0,-5.405057976E0,5.546006571E-1,5.550649723E0
6.237517500E0,7.600424328E-1,-4.679737771E0,3.182777474E0,5.710313700E0
6.247520500E0,2.494214621E-1,-4.252403955E0,4.466427251E0,6.172043653E0
6.257523500E0,-3.532510552E-1,-4.636708696E0,5.716861335E0,7.369284725E0
6.267527500E0,-7.846542406E-1,-4.854566596E0,5.948793483E0,7.718202058E0
6.277530500E0,-1.337130750E0,-5.259811969E0,6.060266556E0,8.135131918E0
6.287533500E0,-1.524941855E0,-5.450218361E0,5.657186991E0,8.002130497E0
6.297537500E0,-1.339809360E0,-5.486693292E0,4.737989488E0,7.372071404E0
6.307540500E0,-1.085586457E0,-5.472619044E0,3.885167238E0,6.798719116E0
6.317543500E0,-1.022152645E0,-5.144417168E0,3.059506474E0,6.072100452E0
6.327546500E0,-1.481778002E0,-4.825629895E0,2.660025870E0,5.705971219E0
6.337550500E0,-2.495043464E0,-4.712231918E0,2.997662812E0,6.116890867E0
6.347553500E0,-3.122791473E0,-4.285899730E0,3.559317404E0,6.386666068E0
6.357556500E0,-3.246681109E0,-3.212819299E0,3.405752857E0,5.697569534E0
6.367560500E0,-3.457699521E0,-1.382115719E0,2.199801027E0,4.324934034E0
6.377563500E0,-3.145957849E0,5.395594257E-1,1.766722176E0,3.648216333E0
6.387566500E0,-2.906914026E0,2.027274690E0,2.105350807E0,4.122195270E0
6.397569500E0,-2.595473778E0,2.889006928E0,2.607438059E0,4.677774940E0
6.407573500E0,-2.310179648E0,3.201126621E0,3.710144578E0,5.417500756E0
6.417576500E0,-1.628813256E0,3.456196201E0,5.191296051E0,6.445764461E0
6.427579500E0,-9.031822720E-1,3.696982203E0,6.379033365E0,7.428020079E0
6.437583500E0,-3.540392599E-1,4.162462669E0,6.793106865E0,7.974819129E0
6.447586500E0,-2.489063224E-1,4.847279211E0,6.632497884E0,8.218765010E0
6.457589500E0,-1.061401788E0,5.097810182E0,6.531807076E0,8.353367350E0
6.467593500E0,-2.200715093E0,4.873910939E0,6.433465680E0,8.365861308E0
6.477596500E0,-3.245815721E0,4.438912008E0,6.764321022E0,8.717528228E0
6.487599500E0,-4.058870765E0,4.134303648E0,7.124368588E0,9.182784236E0
6.497602500E0,-4.727628806E0,3.957233001E0,7.183944114E0,9.466742850E0
6.507606500E0,-5.271871852E0,3.967252205E0,7.175075058E0,9.747483007E0
6.517609500E0,-5.746944090E0,4.037199522E0,7.166310081E0,1.003405933E1
6.527612500E0,-6.084593897E0,4.066576518E0,7.109337736E0,1.020303928E1
6.537616500E0,-6.148012798E0,4.237091852E0,6.983372923E0,1.022342927E1
6.547619500E0,-6.031981820E0,4.480692118E0,6.806636737E0,1.013862467E1
6.557622500E0,-5.833201046E0,4.719043339E0,6.515971647E0,9.937479106E0
6.567625500E0,-5.750578135E0,4.842655817E0,6.154741774E0,9.716033684E0
6.577629500E0,-5.744213440E0,4.872881244E0,5.708702130E0,9.451467594E0
6.587632500E0,-5.761679658E0,4.717775078E0,5.017445465E0,8.979371536E0
6.597635500E0,-5.807426519E0,4.213655627E0,4.066288543E0,8.247169153E0
6.607639500E0,-5.588692707E0,3.270397416E0,1.100669642E0,6.568139698E0
6.617642500E0,-4.605860540E0,1.581470105E0,-7.040759252E0,8.560799603E0
6.627645500E0,-1.579860659E0,-1.319317793E0,-2.506214394E1,2.514652298E1
6.637648500E0,9.590789055E0,-5.219176160E0,-4.541880891E1,4.671285945E1
6.647652500E0,2.057326455E1,-1.040585934E1,-2.072120145E1,3.099853726E1
6.657655500E0,2.027315036E1,-1.467834614E1,-5.177778457E0,2.555902699E1
6.667658500E0,1.146385922E1,-1.807684728E1,-7.403233997E0,2.264951102E1
6.677662500E0,4.021310298E0,-1.753387952E1,-4.927093120E0,1.865165178E1
6.687665500E0,2.211240959E0,-1.138781618E1,-1.540084097E0,1.170229905E1
6.697668500E0,2.135402864E0,-2.432277405E0,1.417960028E0,3.533628363E0
6.707672500E0,1.071801353E0,3.312756985E0,2.736220937E0,4.428320449E0
6.717675500E0,-1.304197770E0,5.236940001E0,1.598357449E0,5.628607192E0
6.727678500E0,-5.010120658E0,2.957688907E0,4.159273598E-1,5.832857640E0
6.737681500E0,-8.304724962E0,-1.758069466E0,-6.862362456E-1,8.516465530E0
6.747685500E0,-1.016930088E1,-6.801871256E0,6.043448210E-2,1.223453249E1
6.757688500E0,-9.451522411E0,-1.024929430E1,7.476642866E0,1.582022433E1
6.767691500E0,-8.227280345E0,-1.074007683E1,1.129036882E1,1.762128884E1
6.777695500E0,-6.958610550E0,-9.353089213E0,9.113913535E0,1.479749839E1
6.787698500E0,-3.832887575E0,-5.469038209E0,8.952666038E0,1.116922716E1
6.797701500E0,-1.216366744E0,-1.458340607E0,9.617893238E0,9.803579740E0
6.807704500E0,-5.455352801E-1,8.602961612E-1,9.142878302E0,9.199453347E0
6.817708500E0,-5.710420042E-1,1.815040058E0,9.427415510E0,9.617516446E0
6.827711500E0,-5.622282037E-1,2.173851523E0,9.997459395E0,1.024650796E1
6.837714500E0,-5.242116541E-1,2.429920392E0,1.021932264E1,1.051731269E1
6.847718500E0,-5.246411321E-1,2.705270455E0,1.033849123E1,1.069944566E1
6.857721500E0,-7.452653494E-1,2.674949133E0,9.777353826E0,1.016402583E1
6.867724500E0,-8.545065406E-1,2.291453063E0,9.045586481E0,9.370356095E0
6.877727500E0,-6.519727314E-1,1.597943466E0,8.095833768E0,8.277742214E0
6.887731500E0,-2.452450883E-1,8.324856341E-1,6.578592403E0,6.635590063E0
6.897734500E0,6.753911224E-1,-3.196088076E-2,5.556393857E0,5.597382188E0
6.907737500E0,1.601484540E0,-9.852505749E-1,4.647531892E0,5.013484229E0
6.917741500E0,2.648384356E0,-1.606265808E0,3.973661338E0,5.038255052E0
6.927744500E0,3.952771575E0,-2.479504781E0,4.457879791E0,6.453296779E0
6.937747500E0,5.868432859E0,-3.171975328E0,5.081209352E0,8.385619845E0
6.947749625E0,7.031201978E0,-3.097737908E0,3.670782584E0,8.515187971E0
6.957753625E0,6.392911731E0,-2.073205739E0,4.447824919E-1,6.735379269E0
6.967756625E0,5.016497047E0,-4.540316176E-1,-3.921871380E0,6.383765538E0
6.977759625E0,3.846410430E0,8.375142395E-1,-7.419931306E0,8.399504979E0
6.987763625E0,3.248864167E0,1.681560988E0,-8.725865407E0,9.461685518E0
6.997766625E0,2.879598173E0,2.387517554E0,-7.980503286E0,8.813668839E0
7.007769625E0,2.249027713E0,2.978410270E0,-6.207594756E0,7.243154426E0
7.017773625E0,1.705784541E0,3.310084807E0,-4.326868247E0,5.708603258E0
7.027776625E0,1.029304375E0,3.452762716E0,-2.484168520E0,4.376314786E0
7.037779625E0,3.338608110E-1,3.549099687E0,-1.439853027E0,3.844573887E0
7.047782625E0,-2.196170345E-1,3.358891516E0,-3.276247555E-1,3.381970112E0
7.057786625E0,-7.948438910E-1,3.076610164E0,1.238775905E0,3.410553131E0
7.067789625E0,-1.357887781E0,2.748806484E0,1.048991657E0,3.240398094E0
7.077792625E0,-1.727592317E0,2.720614133E0,5.775521480E-1,3.274123235E0
7.087796625E0,-1.858601230E0,2.724132988E0,-1.337002404E-1,3.300480998E0
7.097799625E0,-1.620088333E0,2.649354701E0,-3.100719988E-1,3.120883078E0
7.107802625E0,-1.583696432E0,2.391743336E0,-7.204310551E-2,2.869446076E0
7.117805625E0,-1.572386748E0,2.216477725E0,1.576467812E-1,2.722136311E0
7.127809625E0,-1.665328825E0,1.954766877E0,3.698398983E-1,2.594458555E0
7.137812625E0,-1.603316765E0,1.770326985E0,8.719367981E-3,2.388463587E0
7.147815625E0,-1.143590251E0,1.533591349E0,-8.260653913E-1,2.083767050E0
7.157819625E0,-4.972013184E-1,1.007319721E0,-1.592338617E0,1.948703272E0
7.167822625E0,2.210539877E-1,7.862400055E-2,-2.090645936E0,2.103769719E0
7.177825625E0,9.543679208E-1,-1.092947516E0,-2.433738916E0,2.833449755E0
7.187828625E0,1.769920603E0,-2.416126226E0,-2.772848480E0,4.081540588E0
7.197832625E0,2.520920609E0,-3.914410332E0,-3.280124259E0,5.695337051E0
7.207835625E0,2.826963584E0,-5.346037935E0,-5.318798681E0,8.053661535E0
7.217838625E0,2.313856377E0,-5.516406503E0,-1.063933398E1,1.220574044E1
7.227842625E0,2.433046898E0,-3.443704210E0,-1.384462909E1,1.447247631E1
7.237845625E0,3.879862351E0,-1.783356920E0,-1.025318386E1,1.110682102E1
7.247848625E0,5.350998128E0,-1.116169733E0,-5.249364749E0,7.578578106E0
7.257851625E0,6.133364353E0,-7.671096700E-1,-1.989286207E0,6.493371632E0
7.267855625E0,7.063149995E0,-6.205743527E-1,7.868641958E-1,7.133887835E0
7.277858625E0,8.141058472E0,-9.369859028E-1,3.188537566E0,8.793267165E0
7.287861625E0,8.891414115E0,-1.529111797E0,3.524366257E0,9.685896209E0
7.297865625E0,9.469178663E0,-2.329164680E0,1.530479753E0,9.870801434E0
7.307868625E0,9.761762810E0,-3.282722177E0,-2.511056356E0,1.060064536E1
7.317871625E0,9.750399331E0,-3.619219497E0,-9.241490425E0,1.391309391E1
7.327874625E0,9.732085851E0,-3.095555143E0,-1.503789962E1,1.817785415E1
7.337878625E0,9.686454765E0,-2.651643301E0,-1.290176439E1,1.634974442E1
7.347881625E0,9.394379911E0,-2.660582525E0,-6.191068770E0,1.156124586E1
7.357884625E0,8.506363270E0,-3.184457379E0,-3.125746656E0,9.605689826E0
7.367888625E0,6.470962704E0,-4.489526092E0,-2.617399083E0,8.299396412E0
7.377891625E0,3.903393009E0,-5.533459323E0,-1.074904178E0,6.856461774E0
7.387894625E0,2.507544811E0,-5.195929384E0,1.658886656E0,6.003113199E0
7.397897625E0,1.905164947E0,-4.677663179E0,3.925934610E0,6.397120356E0
7.407901625E0,1.176324719E0,-5.057457377E0,5.204685590E0,7.351895474E0
7.417904625E0,4.798409352E-1,-5.744989366E0,5.790022282E0,8.170649189E0
7.427907625E0,7.374274492E-2,-5.977831925E0,5.523687456E0,8.139473916E0
7.437911625E0,-1.573564669E-1,-5.935465924E0,5.335363258E0,7.982519520E0
7.447914625E0,-1.126907560E-1,-5.912983380E0,4.792439929E0,7.612066220E0
7.457917625E0,-2.299788854E-1,-5.782694551E0,4.434472218E0,7.290884062E0
7.467921625E0,-3.264564818E-1,-5.515447560E0,4.124010794E0,6.894505106E0
7.477924625E0,-6.894121608E-1,-5.155163181E0,4.359632535E0,6.786559688E0
7.487927625E0,-1.511050040E0,-4.834559178E0,4.978382556E0,7.102149502E0
7.497930625E0,-2.283844374E0,-4.189531769E0,5.634414425E0,7.383410288E0
7.507934625E0,-2.838380857E0,-3.402780132E0,6.703746207E0,8.035890226E0
7.517937625E0,-2.561583609E0,-2.008128567E0,7.411461614E0,8.094692964E0
7.527940625E0,-2.566565436E0,-1.954279804E-1,6.188031142E0,6.702028025E0
7.537944625E0,-2.811271996E0,1.314892035E0,5.103286684E0,5.972916062E0
7.547947625E0,-2.194613816E0,2.825986807E0,3.151416517E0,4.768013979E0
7.557950625E0,-4.457054749E-1,4.162782512E0,-1.319038588E0,4.389450354E0
7.567953625E0,9.286226302E-1,5.019144666E0,-2.853043628E0,5.847564545E0
7.577957625E0,4.273338157E-1,4.587551739E0,8.256590098E-2,4.608151720E0
7.587960625E0,-1.525819230E-1,4.140866563E0,3.436884602E0,5.383514921E0
7.597963625E0,-6.101858971E-1,3.726069177E0,6.074665325E0,7.152445536E0
7.607967625E0,-1.210180682E0,3.492224405E0,7.941269639E0,8.759219831E0
7.617970625E0,-2.114777103E0,3.350810664E0,8.935502121E0,9.774631065E0
7.627973625E0,-3.280642615E0,3.396115476E0,9.447014208E0,1.056135852E1
7.637976625E0,-4.257120320E0,3.578793603E0,9.460072795E0,1.097377849E1
7.647980625E0,-5.109984085E0,3.754267960E0,9.001028944E0,1.101022195E1
7.657983625E0,-5.631387321E0,4.039485199E0,8.753454325E0,1.116480750E1
7.667986625E0,-5.943520464E0,4.243046656E0,8.371879649E0,1.110933163E1
7.677990625E0,-6.301648389E0,4.378437765E0,7.954469143E0,1.105237843E1
7.687993625E0,-6.788623804E0,4.448480977E0,7.357309381E0,1.095465187E1
7.697996625E0,-7.308110908E0,4.431935695E0,6.883764435E0,1.097436795E1
7.707999625E0,-7.814841142E0,4.492813396E0,6.454937825E0,1.108707972E1
7.718003625E0,-8.035670012E0,4.666477455E0,6.044037609E0,1.108505277E1
7.728006625E0,-8.170357701E0,4.720064263E0,5.807677950E0,1.107984092E1
7.738009625E0,-8.264586750E0,4.529833873E0,5.580196702E0,1.095268845E1
7.748013625E0,-8.326485375E0,3.945039217E0,4.749377525E0,1.036582269E1
7.758016625E0,-8.240786828E0,2.554795868E0,1.116197508E0,8.699623346E0
7.768019625E0,-6.781754496E0,3.550136983E-2,-8.102130049E0,1.056588689E1
7.778022625E0,-1.928916629E0,-3.472761948E0,-2.440507828E1,2.472627430E1
7.788026625E0,1.042927627E1,-6.968574790E0,-4.228344300E1,4.410465271E1
7.798029625E0,2.232750643E1,-9.288040109E0,-2.245730760E1,3.300175597E1
7.808032625E0,2.321579204E1,-1.238005476E1,-3.673180819E0,2.656559831E1
7.818036625E0,1.683121493E1,-1.424362086E1,-4.577782795E0,2.251947217E1
7.828039625E0,7.819827062E0,-1.411512713E1,-4.952019800E0,1.687924789E1
7.838042625E0,3.534104503E0,-8.099581248E0,-3.606958179E0,9.544802687E0
7.848045625E0,1.545453011E0,-7.375946796E-1,-1.932053368E0,2.581724450E0
7.858049625E0,-1.423422790E-1,4.240804834E0,-1.481026635E-1,4.245776885E0
7.868052625E0,-1.696146576E0,7.123841169E0,1.359034713E0,7.448019976E0
7.878055625E0,-3.666834836E0,7.418524466E0,3.298910193E0,8.908590878E0
7.888059625E0,-6.354378580E0,3.397688377E0,6.084744755E0,9.431146917E0
7.898062625E0,-7.598057960E0,-2.826853364E0,8.232822336E0,1.155426105E1
7.908065625E0,-6.410821753E0,-7.629201985E0,1.197336688E1,1.557770435E1
7.918068625E0,-4.862971676E0,-9.708784112E0,1.286370370E1,1.683400889E1
7.928072625E0,-3.310218709E0,-1.106790215E1,9.814146845E0,1.515828104E1
7.938075625E0,-1.566819029E0,-1.097842338E1,4.769367693E0,1.207176747E1
7.948079500E0,1.927663279E-1,-7.336355299E0,4.106765893E0,8.409803448E0
7.958083500E0,1.172021753E-1,-3.904127419E0,4.542092561E0,5.990538547E0
7.968086500E0,-6.227866468E-1,-1.916687470E0,5.423521729E0,5.785857067E0
7.978089500E0,-8.768046051E-1,9.897231102E-2,6.161844971E0,6.224702024E0
7.988092500E0,-1.340718310E0,1.710929214E0,6.127153441E0,6.501293229E0
7.998096500E0,-2.139790030E0,2.563170251E0,5.728570969E0,6.630615994E0
8.008099500E0,-2.491126122E0,3.018930890E0,5.680110415E0,6.898065483E0
8.018102500E0,-2.504708327E0,3.031061524E0,5.778444210E0,6.989371592E0
8.028106500E0,-2.420264008E0,2.865738518E0,5.540483583E0,6.690821583E0
8.038109500E0,-2.005858678E0,2.679457921E0,5.052624654E0,6.060691353E0
8.048112500E0,-1.327553596E0,2.235755410E0,4.246349748E0,4.979205458E0
8.058115500E0,-6.446005619E-1,1.613461976E0,3.580371766E0,3.979677300E0
8.068119500E0,1.114189866E-1,5.222528368E-1,2.563412325E0,2.618443233E0
8.078122500E0,1.017865759E0,-8.691470915E-1,2.116993783E0,2.504621737E0
8.088125500E0,2.263991030E0,-2.108331133E0,2.882287892E0,4.228273766E0
8.098129500E0,3.363341247E0,-2.981156707E0,3.720250028E0,5.834348287E0
8.108132500E0,4.027415376E0,-2.699285830E0,3.984796776E0,6.275732941E0
8.118135500E0,4.348539490E0,-1.343108944E0,3.556987581E0,5.776322185E0
8.128138500E0,4.286694952E0,-5.848092735E-2,1.767361861E0,4.637104870E0
8.138142500E0,4.135866024E0,1.173605763E0,-1.952747103E-1,4.303588092E0
8.148145500E0,3.605650156E0,2.449668193E0,-1.721316792E0,4.686631926E0
8.158148500E0,2.807218999E0,3.555704117E0,-2.722211008E0,5.285257141E0
8.168152500E0,1.934272094E0,4.417245736E0,-3.161790063E0,5.766314666E0
8.178155500E0,1.212275155E0,4.951544421E0,-2.818633933E0,5.825126647E0
8.188158500E0,5.752344579E-1,4.773489688E0,-2.130968482E0,5.259099272E0
8.198161500E0,4.137103879E-1,4.294115068E0,-1.460152075E0,4.554407161E0
8.208165500E0,5.729315320E-1,3.709396427E0,-1.036910141E0,3.893976763E0
8.218168500E0,3.044048774E-1,2.851196492E0,-7.639337549E-1,2.967419510E0
8.228171500E0,-3.620633939E-1,2.069518484E0,-8.510183841E-1,2.266766188E0
8.238175500E0,-1.080309052E0,1.181221762E0,-4.920841277E-1,1.674663933E0
8.248178500E0,-1.018217469E0,8.401846629E-1,-5.774581540E-1,1.440879940E0
8.258181500E0,-9.899648926E-1,8.420031470E-1,-8.146665367E-1,1.533845284E0
8.268184500E0,-1.244650311E0,5.994805223E-1,-1.538377295E0,2.067640199E0
8.278188500E0,-1.948263019E0,1.022736490E-1,-2.722992781E0,3.349757958E0
8.288191500E0,-3.037305765E0,-6.232102776E-1,-4.640027575E0,5.580633769E0
8.298194500E0,-3.729806133E0,-1.369186941E0,-6.370218102E0,7.507716386E0
8.308198500E0,-2.993706002E0,-1.607252818E0,-6.326373925E0,7.181124166E0
8.318201500E0,-1.094396164E0,-1.484944269E0,-4.711644273E0,5.059876896E0
8.328204500E0,7.511695755E-1,-1.736271046E0,-2.987619927E0,3.536207814E0
8.338207500E0,2.071863218E0,-2.200354028E0,-2.309931141E0,3.803939658E0
8.348211500E0,3.315996927E0,-2.616654148E0,-2.494986161E0,4.905881215E0
8.358214500E0,4.916216714E0,-1.664866603E0,-3.620955536E0,6.328687587E0
8.368217500E0,6.522903521E0,4.775549662E-1,-4.785965307E0,8.104430456E0
8.378221500E0,8.053790533E0,1.688602790E0,-4.364288380E0,9.314608655E0
8.388224500E0,9.142884734E0,1.958498570E0,-2.841553849E0,9.772537347E0
8.398227500E0,9.362513756E0,1.526472364E0,-1.403009283E0,9.589328274E0
8.408230500E0,8.707320378E0,3.063496614E-1,-1.526190528E-1,8.714044460E0
8.418234500E0,7.900504605E0,-1.307142136E0,6.744871429E-1,8.036263216E0
8.428237500E0,7.686188364E0,-2.751048891E0,4.547660279E-1,8.176342318E0
8.438240500E0,7.923547313E0,-4.005707588E0,-2.493025005E0,9.221901592E0
8.448244500E0,8.945289191E0,-4.680396168E0,-6.133045095E0,1.181264361E1
8.458247500E0,1.012869547E1,-4.119970368E0,-7.745558653E0,1.339993682E1
8.468250500E0,1.010212923E1,-2.841432227E0,-7.818313218E0,1.308635831E1
8.478253500E0,8.742628790E0,-2.175249592E0,-6.138882955E0,1.090188758E1
8.488257500E0,7.087233506E0,-2.107545851E0,-3.542005845E0,8.198562905E0
8.498260500E0,5.730350277E0,-2.393637834E0,-3.888714743E0,7.327244962E0
8.508263500E0,3.980843765E0,-3.664573426E0,-6.637639925E0,8.563555293E0
8.518267500E0,1.712685133E0,-5.687388445E0,-5.627243400E0,8.182025786E0
8.528270500E0,6.046640790E-1,-6.332553847E0,2.040685572E-1,6.364628886E0
8.538273500E0,7.107884118E-1,-5.337595725E0,5.245935357E0,7.517644981E0
8.548276500E0,9.648049083E-1,-4.754668670E0,6.764809265E0,8.324684202E0
8.558280500E0,9.732892182E-1,-5.020493619E0,6.284837644E0,8.102581829E0
8.568283500E0,6.115725642E-1,-5.502200693E0,5.751631803E0,7.983075965E0
8.578286500E0,-2.940155447E-2,-6.099439393E0,5.232372156E0,8.036276733E0
8.588290500E0,-2.893409881E-1,-6.168737669E0,4.228892301E0,7.484689221E0
8.598293500E0,-4.615815425E-1,-6.019509709E0,3.322428864E0,6.891015035E0
8.608296500E0,-5.725444463E-1,-5.795183619E0,2.646482549E0,6.396548304E0
8.618299500E0,-6.282903385E-1,-5.410785908E0,2.338847669E0,5.928031825E0
8.628303500E0,-1.093441021E0,-5.177105443E0,2.434987589E0,5.824705880E0
8.638306500E0,-1.646894016E0,-4.839399503E0,3.567876266E0,6.233922401E0
8.648309500E0,-2.062599474E0,-3.919765213E0,4.233672985E0,6.127223095E0
8.658313500E0,-2.691708423E0,-2.507902953E0,3.732180687E0,5.240614863E0
8.668316500E0,-3.354396762E0,-1.367890028E0,3.112155973E0,4.775836635E0
8.678319500E0,-3.598855399E0,-3.885094732E-1,2.971572536E0,4.683262019E0
8.688322500E0,-4.180028290E0,6.853819674E-1,3.109937539E0,5.254911649E0
8.698326500E0,-4.419702151E0,1.769993693E0,3.179197809E0,5.724853141E0
8.708329500E0,-4.447658858E0,2.640295610E0,3.444768111E0,6.214439441E0
8.718332500E0,-4.411870975E0,3.487906237E0,3.424576213E0,6.584665341E0
8.728335500E0,-3.830492263E0,3.976627631E0,3.369472053E0,6.468352202E0
8.738339500E0,-3.196141870E0,4.235838794E0,4.018149294E0,6.656063167E0
8.748342500E0,-2.581002504E0,4.602925238E0,5.108556780E0,7.344783662E0
8.758345500E0,-2.163711866E0,4.874187512E0,6.093348348E0,8.097422246E0
8.768349500E0,-2.256284400E0,5.133980473E0,7.071783993E0,9.025447559E0
8.778352500E0,-2.495607428E0,5.380290924E0,7.919280599E0,9.893967459E0
8.788355500E0,-2.788136026E0,5.707642615E0,8.514599658E0,1.062305484E1
8.798358500E0,-3.697819524E0,5.534244604E0,8.745137830E0,1.098995761E1
8.808362500E0,-5.121400774E0,4.955353882E0,8.316393081E0,1.095201679E1
8.818365500E0,-6.129824449E0,4.400932004E0,7.256266571E0,1.046882777E1
8.828368500E0,-6.891782137E0,4.116928647E0,6.134407496E0,1.010330232E1
8.838372500E0,-7.283333332E0,3.915830621E0,5.176935289E0,9.756092090E0
8.848375500E0,-7.538494713E0,3.653643225E0,4.498267387E0,9.508544623E0
8.858378500E0,-7.586395104E0,3.514075450E0,4.295633005E0,9.399711690E0
8.868381500E0,-7.540716655E0,3.241766524E0,4.241097487E0,9.238959128E0
8.878385500E0,-7.550203178E0,2.697500090E0,4.110357838E0,9.009834422E0
8.888388500E0,-7.581882223E0,1.868577164E0,3.127618057E0,8.411807973E0
8.898391500E0,-7.509837509E0,6.137524062E-1,-3.721381465E-1,7.544059798E0
8.908395500E0,-6.217764233E0,-8.877827525E-1,-6.055557209E0,8.724593021E0
8.918398500E0,-2.682135654E0,-2.670583602E0,-1.387637713E1,1.438331362E1
8.928401500E0,5.095999884E0,-4.270649607E0,-2.519279179E1,2.605541059E1
8.938404500E0,1.520955165E1,-5.690279893E0,-2.373173398E1,2.875595494E1
8.948408000E0,1.813001835E1,-8.728867952E0,-9.629081300E0,2.230717167E1
8.958411000E0,1.321741580E1,-1.186500043E1,-3.547472992E0,1.811250619E1
8.968414000E0,5.518268257E0,-1.256209262E1,-7.010689945E0,1.540802483E1
8.978418000E0,2.818203578E0,-9.076624671E0,-8.732870371E0,1.290699081E1
8.988421000E0,2.295408120E0,-2.991513296E0,-5.933263278E0,7.030054293E0
8.998424000E0,7.986399034E-1,1.750769802E0,-1.815172205E0,2.645348886E0
9.008427000E0,-1.077066771E0,4.269343339E0,2.794328812E-1,4.411966468E0
9.018431000E0,-2.980705010E0,3.813303203E0,1.010328113E0,4.944355021E0
9.028434000E0,-4.959910617E0,-2.825421381E-1,1.938275098E0,5.332677915E0
9.038437000E0,-6.045271372E0,-5.239916818E0,2.634191994E0,8.422648139E0
9.048441000E0,-5.744466625E0,-8.340785910E0,4.636682968E0,1.113851136E1
9.058444000E0,-3.280831772E0,-8.962385280E0,1.006837209E1,1.387300701E1
9.068447000E0,-1.461211883E0,-8.953174746E0,1.124406940E1,1.444726877E1
9.078450000E0,-6.413138419E-1,-9.317353955E0,8.869786434E0,1.288011955E1
9.088454000E0,-6.253553286E-1,-7.886489414E0,7.675169871E0,1.102252317E1
9.098457000E0,-1.283253921E0,-5.396593546E0,8.019329967E0,9.750877686E0
9.108460000E0,-1.709752169E0,-2.934993525E0,8.051048774E0,8.738239286E0
9.118464000E0,-2.608867118E0,-6.317477971E-1,8.806086867E0,9.206109864E0
9.128467000E0,-3.565474522E0,1.445105435E0,9.113132347E0,9.891921929E0
9.138470000E0,-4.365191483E0,2.379057802E0,8.406410966E0,9.766399441E0
9.148473000E0,-4.821370783E0,2.684168438E0,7.700853181E0,9.473833234E0
9.158477000E0,-4.839559424E0,2.702293053E0,6.511692070E0,8.551365784E0
9.168480000E0,-4.490093856E0,2.789973221E0,5.883614570E0,7.909602633E0
9.178483000E0,-3.923741612E0,2.708299897E0,5.281106944E0,7.114824462E0
9.188487000E0,-3.377749079E0,2.135996649E0,4.121270789E0,5.740778992E0
9.198490000E0,-2.739098059E0,1.126492993E0,3.041796427E0,4.245488210E0
9.208493000E0,-1.471899716E0,-7.543200552E-2,2.063256701E0,2.535588093E0
9.218496000E0,-1.117224571E-1,-1.674620928E0,1.108540871E0,2.011392558E0
9.228500000E0,1.299986021E0,-2.799377882E0,9.603771043E-1,3.232461038E0
9.238503000E0,2.359859931E0,-3.379215268E0,7.434190911E-1,4.188162684E0
9.248506000E0,3.249014733E0,-3.043462883E0,1.126158532E0,4.592057937E0
9.258509000E0,3.884601227E0,-1.994214533E0,2.272734371E0,4.922635455E0
9.268513000E0,3.889171411E0,-7.663898778E-1,5.730578318E0,6.967964952E0
9.278516000E0,3.782723142E0,6.982698154E-1,5.972413895E0,7.103963882E0
9.288519000E0,3.606723705E0,1.730677600E0,2.707035729E0,4.830294326E0
9.298523000E0,3.301383858E0,2.605202376E0,-6.884155029E-1,4.261470486E0
9.308526000E0,2.950847957E0,3.640130895E0,-2.372891621E0,5.252491908E0
9.318529000E0,2.232162296E0,4.390189499E0,-2.829115652E0,5.679807015E0
9.328532000E0,1.526541946E0,4.681677293E0,-2.969539459E0,5.750356266E0
9.338536000E0,1.192963263E0,4.842314340E0,-2.558720227E0,5.605195689E0
9.348539000E0,1.430063472E0,4.920336077E0,-2.248366977E0,5.595528814E0
9.358542000E0,2.490837562E0,4.176467920E0,-3.458533626E0,5.967295106E0
9.368546000E0,3.621932606E0,2.912362461E0,-4.622205847E0,6.554772139E0
9.378549000E0,3.200878992E0,2.176009145E0,-5.706231097E0,6.895050069E0
9.388552000E0,2.622576500E0,1.649042283E0,-6.119781271E0,6.859225230E0
9.398555000E0,1.863563177E0,1.053717377E0,-5.523282244E0,5.923667342E0
9.408559000E0,1.350312421E0,7.014314049E-1,-4.453368664E0,4.706149393E0
9.418562000E0,1.004192045E0,4.475628430E-1,-3.385909161E0,3.559929074E0
9.428565000E0,8.204742837E-1,4.266303957E-2,-2.535746225E0,2.665521919E0
9.438569000E0,7.943512630E-1,-4.623253083E-1,-1.784222308E0,2.007034594E0
9.448572000E0,7.461085179E-1,-1.054151825E0,-1.541340664E0,2.010881656E0
9.458575000E0,7.912478533E-1,-1.627886472E0,-1.634881204E0,2.439041632E0
9.468578000E0,9.589860517E-1,-2.042388573E0,-1.878201681E0,2.935753206E0
9.478582000E0,1.174716734E0,-2.230595827E0,-2.356290791E0,3.450742448E0
9.488585000E0,1.154280131E0,-2.354659710E0,-3.437374014E0,4.323462164E0
9.498588000E0,6.805691242E-2,-2.747211948E0,-6.300975959E0,6.874162005E0
9.508591000E0,-1.373931956E0,-3.128925202E0,-1.041861563E1,1.096473500E1
9.518595000E0,-9.447843343E-2,-1.938547871E0,-1.076388903E1,1.093746777E1
9.528598000E0,3.283172705E0,-2.204154718E-1,-7.104421982E0,7.829471099E0
9.538601000E0,6.213665335E0,5.402809721E-1,-2.963397544E0,6.905307048E0
9.548605000E0,8.577995755E0,1.239102765E0,1.240407863E-1,8.667916298E0
9.558608000E0,9.474141195E0,2.031137361E0,2.071220317E0,9.908320946E0
9.568611000E0,8.797504324E0,2.434530337E0,2.703802219E0,9.520166318E0
9.578614000E0,7.477838037E0,1.973999539E0,1.243796325E0,7.833375083E0
9.588618000E0,5.945443028E0,3.867406905E-2,-3.037403414E0,6.676496685E0
9.598621000E0,5.397675866E0,-3.363202084E0,-1.006515378E1,1.190602174E1
9.608624000E0,6.444694673E0,-6.024309103E0,-1.441834970E1,1.690311207E1
9.618628000E0,6.987170105E0,-6.395574553E0,-9.919701952E0,1.371584510E1
9.628631000E0,5.854336392E0,-5.201251520E0,-4.252120950E0,8.911049575E0
9.638634000E0,4.716814381E0,-3.900616751E0,-1.363236814E0,6.270690835E0
9.648637000E0,4.344930881E0,-3.629342197E0,2.780479681E-1,5.668144301E0
9.658641000E0,4.585599646E0,-3.357768266E0,1.517016832E0,5.882488581E0
9.668644000E0,4.888340990E0,-3.048336537E0,2.584220812E0,6.313986893E0
9.678647000E0,4.705317878E0,-3.073032838E0,3.433085082E0,6.585561504E0
9.688651000E0,4.067436351E0,-3.501177662E0,3.795755709E0,6.573434787E0
9.698654000E0,3.248859489E0,-4.201019209E0,3.743852899E0,6.497698431E0
9.708657000E0,2.342174735E0,-5.096305693E0,3.525850573E0,6.624932941E0
9.718660000E0,1.202450078E0,-6.088892185E0,3.447439411E0,7.099671311E0
9.728664000E0,1.628069490E-1,-6.964846020E0,3.566012174E0,7.826367549E0
9.738667000E0,-4.612155068E-1,-7.740555775E0,3.609814836E0,8.553343592E0
9.748670000E0,-8.968588006E-1,-8.122774814E0,3.565457858E0,8.916070666E0
9.758674000E0,-1.171472699E0,-8.289777140E0,4.189397868E0,9.361827162E0
9.768677000E0,-1.317455454E0,-7.907736441E0,4.076743072E0,8.993765540E0
9.778680000E0,-1.537880867E0,-6.627401451E0,1.597540008E0,6.988537875E0
9.788683000E0,-1.644720021E0,-4.780264857E0,-4.166279147E0,6.550871543E0
9.798687000E0,-2.121261665E0,-2.935161924E0,-6.888943899E0,7.782832043E0
9.808690000E0,-3.465089816E0,-2.284980195E0,-2.943522273E0,5.088448221E0
9.818693000E0,-4.407867971E0,-1.546530068E0,9.281437433E-1,4.762615469E0
9.828696000E0,-5.096750666E0,-7.457889676E-1,3.305015856E0,6.120146922E0
9.838700000E0,-4.968631155E0,2.232373381E-1,4.233922076E0,6.531709318E0
9.848703000E0,-4.869524358E0,1.309749409E0,4.472721486E0,6.740396760E0
9.858706000E0,-5.007960697E0,1.902874593E0,5.148272238E0,7.430027530E0
9.868710000E0,-5.186335273E0,2.293419482E0,6.071680906E0,8.308017543E0
9.878713000E0,-4.857236434E0,2.711284316E0,6.681222147E0,8.693821818E0
9.888716000E0,-4.167839184E0,3.276085002E0,7.121950765E0,8.878389443E0
9.898719000E0,-3.458320203E0,4.013428836E0,7.606417140E0,9.269583127E0
9.908723000E0,-2.974079530E0,5.298742146E0,7.810087355E0,9.895417216E0
9.918726000E0,-3.097182131E0,7.422639737E0,8.284271402E0,1.154630982E1
9.928729000E0,-4.421997475E0,7.518442272E0,7.758760496E0,1.167387683E1
9.938733000E0,-5.902339693E0,5.871996152E0,6.761174051E0,1.072527050E1
9.948736500E0,-6.915928799E0,4.146881593E0,6.098800292E0,1.011049272E1
9.958739500E0,-7.286076261E0,2.628713445E0,6.347777073E0,1.001455518E1
9.968742500E0,-6.721952682E0,2.339835849E0,6.816211553E0,9.854959137E0
9.978746500E0,-5.694564732E0,2.897384233E0,6.392798295E0,9.038294802E0
9.988749500E0,-4.977310762E0,3.387854530E0,6.007387261E0,8.505285559E0
9.998752500E0,-4.869072076E0,3.483343070E0,6.139678177E0,8.575382786E0
1.000875650E1,-5.147140217E0,3.472251486E0,5.860969473E0,8.538181654E0
1.001875950E1,-5.607576874E0,3.492170026E0,5.034218203E0,8.305631994E0
1.002876250E1,-6.070202730E0,3.225503663E0,3.952149724E0,7.929106034E0
1.003876550E1,-5.969792004E0,2.779791464E0,3.061606501E0,7.262168513E0
1.004876950E1,-5.167950457E0,2.166613255E0,1.341711167E0,5.762127539E0
1.005877250E1,-3.652516175E0,7.781381035E-1,-3.278821207E0,4.969611838E0
1.006877550E1,4.135434499E-1,-1.992529365E0,-2.249377318E1,2.258563754E1
1.007877850E1,1.576639486E1,-3.877150705E0,-4.457891018E1,4.744355317E1
1.008878250E1,2.417685444E1,-6.880900469E0,-1.283033715E1,2.822205934E1
1.009878550E1,1.872201620E1,-1.081892186E1,-2.447376377E0,2.176126402E1
1.010878850E1,9.526723452E0,-1.359468518E1,-9.213509159E0,1.898585462E1
1.011879250E1,5.009876829E0,-1.247150989E1,-8.242310028E0,1.576620117E1
1.012879550E1,4.290840043E0,-4.638661081E0,-4.961388209E0,8.033919209E0
1.013879850E1,2.442860865E0,1.602695498E0,-5.810182312E-1,2.978889768E0
1.014880150E1,1.858560884E-1,3.850691469E0,3.239183517E0,5.035342802E0
1.015880550E1,-3.235744769E0,1.986653498E0,4.977463374E0,6.260349669E0
1.016880850E1,-6.264863555E0,-2.756973290E0,6.157321565E0,9.206629456E0
1.017881150E1,-7.941746187E0,-6.296062544E0,5.004485697E0,1.130294710E1
1.018881550E1,-8.543008940E0,-8.500369874E0,3.600133308E0,1.257776807E1
1.019881850E1,-7.109742948E0,-9.627510738E0,3.973356406E0,1.261051026E1
1.020882150E1,-3.965717311E0,-8.909398981E0,4.915839568E0,1.092107058E1
1.021882450E1,-7.232625693E-1,-8.314405028E0,4.846659991E0,9.651038948E0
1.022882850E1,5.998298934E-1,-6.611855459E0,6.424569726E0,9.238588890E0
1.023883150E1,-4.436007696E-1,-3.279106259E0,7.695929825E0,8.377150791E0
1.024883450E1,-1.422292815E0,-6.284113759E-1,7.955556141E0,8.106089761E0
1.025883750E1,-2.244492905E0,1.545134338E0,8.478315346E0,8.905448873E0
1.026884150E1,-3.352437944E0,2.905793114E0,7.959113002E0,9.112077347E0
1.027884450E1,-4.121385102E0,3.640108675E0,7.133095558E0,9.006512009E0
1.028884750E1,-4.585611925E0,3.649999825E0,6.709698672E0,8.909006214E0
1.029885150E1,-4.856234806E0,3.131775720E0,6.613103839E0,8.782037238E0
1.030885450E1,-4.615442665E0,2.489779508E0,6.485363227E0,8.340338673E0
1.031885750E1,-4.310219762E0,1.609433244E0,6.051188754E0,7.601654761E0
1.032886050E1,-3.639928581E0,3.560018778E-1,5.122742125E0,6.294307292E0
1.033886450E1,-2.519395363E0,-8.143633586E-1,4.117119266E0,4.895019073E0
1.034886750E1,-1.302318183E0,-1.845944347E0,2.986891072E0,3.745004867E0
1.035887050E1,-5.666945994E-2,-2.991796886E0,1.523079225E0,3.357652507E0
1.036887450E1,1.435203175E0,-3.773397126E0,8.448829007E-1,4.124580116E0
1.037887750E1,2.601206388E0,-3.851199592E0,1.125045222E0,4.781604305E0
1.038888050E1,3.842508876E0,-3.432525503E0,4.564934124E0,6.883729319E0
1.039888350E1,4.535227929E0,-1.839365644E0,6.057306111E0,7.787330458E0
1.040888750E1,4.577330806E0,1.181897700E-2,4.150326188E0,6.178778557E0
1.041889050E1,4.346924781E0,1.606486832E0,8.903151085E-1,4.719027017E0
1.042889350E1,4.031725067E0,2.981083032E0,-1.865158882E0,5.349811278E0
1.043889750E1,3.684663582E0,4.297784781E0,-3.401576191E0,6.604424298E0
1.044890050E1,3.350822066E0,5.321973134E0,-4.251547923E0,7.591249324E0
1.045890350E1,3.034327486E0,5.817165642E0,-4.132679291E0,7.754069739E0
1.046890650E1,2.657157518E0,5.631969119E0,-3.308493780E0,7.051644725E0
1.047891050E1,2.271075809E0,4.700094852E0,-2.430589314E0,5.758163020E0
1.048891350E1,2.218736797E0,3.335802616E0,-1.914372557E0,4.440179541E0
1.049891650E1,2.610254955E0,2.343989126E0,-1.371972847E0,3.766965018E0
1.050891950E1,2.587794922E0,1.447969401E0,-8.247111762E-1,3.077896436E0
1.051892350E1,1.947462828E0,6.168847597E-1,-6.037095210E-1,2.130169819E0
1.052892650E1,6.677488115E-1,3.695849597E-2,-1.308930214E0,1.469881870E0
1.053892950E1,-6.810927424E-1,-6.223215008E-1,-2.079553476E0,2.275019568E0
1.054893350E1,-1.479918880E0,-6.307414913E-1,-3.120777985E0,3.511018363E0
1.055893650E1,-2.000940585E0,-1.222728807E-1,-4.363661851E0,4.802109811E0
1.056893950E1,-2.602011842E0,1.535665941E-1,-5.744843770E0,6.308508403E0
1.057894250E1,-2.927374895E0,3.962272131E-1,-6.590477453E0,7.222251231E0
1.058894650E1,-2.792831632E0,4.985213274E-1,-5.821255184E0,6.475758177E0
1.059894950E1,-2.091496999E0,2.116107345E-1,-4.020870588E0,4.537239148E0
1.060895250E1,-1.040124355E0,-4.310824656E-1,-2.466340067E0,2.711184998E0
1.061895650E1,7.683650672E-2,-1.144398921E0,-1.638223180E0,1.999831975E0
1.062895950E1,1.027747261E0,-1.769651046E0,-1.251033716E0,2.398544270E0
1.063896250E1,1.790299319E0,-2.097474607E0,-1.075947614E0,2.960107202E0
1.064896550E1,2.656426324E0,-1.554706814E0,-1.497168750E0,3.422751577E0
1.065896950E1,4.134168285E0,-1.353069091E-1,-2.196572049E0,4.683437213E0
1.066897250E1,5.940037862E0,7.711155975E-1,-2.495290801E0,6.488847760E0
1.067897550E1,7.398201299E0,1.344386560E0,-1.895765255E0,7.754655607E0
1.068897850E1,8.490153619E0,1.896036859E0,-8.045999703E-1,8.736420626E0
1.069898250E1,8.792538868E0,2.048098964E0,-3.015906125E-2,9.027976445E0
1.070898550E1,8.172675537E0,1.132848331E0,-1.219729185E-1,8.251717892E0
1.071898850E1,7.314890755E0,-5.285345006E-1,-1.745977717E0,7.538926559E0
1.072899250E1,6.227250756E0,-2.487254096E0,-6.578680696E0,9.393834394E0
1.073899550E1,5.908504997E0,-4.577313849E0,-1.232861213E1,1.441724351E1
1.074899850E1,7.011422601E0,-6.252067509E0,-1.349159759E1,1.643993919E1
1.075900150E1,7.981534735E0,-6.503748043E0,-9.442741063E0,1.397028969E1
1.076900550E1,7.348821563E0,-5.061573817E0,-5.262882927E0,1.035966431E1
1.077900850E1,6.302260008E0,-2.935243785E0,-3.546264957E0,7.804494374E0
1.078901150E1,5.250621901E0,-2.070804287E0,-3.524383507E0,6.654212188E0
1.079901550E1,4.038797274E0,-2.507445116E0,-2.426678696E0,5.337408915E0
1.080901850E1,3.732874459E0,-3.000216292E0,-3.565003529E-2,4.789250510E0
1.081902150E1,3.976424147E0,-2.881358770E0,2.831475588E0,5.668459347E0
1.082902450E1,3.754147799E0,-2.892894157E0,4.855489286E0,6.785148378E0
1.083902850E1,3.162912436E0,-3.271424772E0,5.106319635E0,6.839644386E0
1.084903150E1,2.632946244E0,-3.797643775E0,4.802751494E0,6.664902556E0
1.085903450E1,1.897879316E0,-4.601268722E0,4.698688012E0,6.844800128E0
1.086903750E1,1.210338264E0,-5.430768768E0,4.642470542E0,7.246426765E0
1.087904150E1,7.762061834E-1,-5.932449346E0,4.597618890E0,7.545498707E0
1.088904450E1,4.475903249E-1,-6.221210582E0,4.353442672E0,7.606330345E0
1.089904750E1,1.253938320E-1,-6.259856000E0,4.162445712E0,7.518475581E0
1.090905150E1,-5.149215978E-1,-6.151709408E0,4.799608616E0,7.819521453E0
1.091905450E1,-1.143055231E0,-5.679673043E0,5.635877398E0,8.082597057E0
1.092905750E1,-1.821301256E0,-4.870776832E0,6.208994579E0,8.098964063E0
1.093906050E1,-1.987413052E0,-3.662655539E0,5.651581850E0,7.021768555E0
1.094906463E1,-2.314305151E0,-2.470864350E0,4.228562518E0,5.416818249E0
1.095906763E1,-2.524621312E0,-1.200090142E0,3.152341547E0,4.213215678E0
1.096907063E1,-1.829736450E0,5.968200392E-1,1.199847190E-1,1.928347989E0
1.097907463E1,-1.164492293E0,2.192846203E0,-3.729281638E0,4.480196235E0
1.098907763E1,-1.303044991E0,2.603019610E0,-2.916984100E0,4.120974834E0
1.099908063E1,-1.872436911E0,2.383919762E0,2.778800069E-1,3.044061549E0
1.100908363E1,-2.591912239E0,2.034043427E0,3.128343405E0,4.543332937E0
1.101908763E1,-3.240960193E0,1.644583197E0,5.716715155E0,6.774164821E0
1.102909063E1,-3.347473658E0,1.746086183E0,7.584792967E0,8.472513275E0
1.103909363E1,-3.454429758E0,2.133971758E0,8.649884348E0,9.555491596E0
1.104909663E1,-3.328031082E0,2.814279512E0,9.048858583E0,1.004379419E1
1.105910063E1,-3.283274154E0,3.515985736E0,8.978394957E0,1.018595213E1
1.106910363E1,-3.819900032E0,3.966179241E0,8.517572383E0,1.014254669E1
1.107910663E1,-4.742770171E0,4.062992175E0,7.749095049E0,9.952399127E0
1.108911063E1,-5.580452226E0,3.869608381E0,6.981659689E0,9.739552766E0
1.109911363E1,-6.238225980E0,3.662149170E0,6.567330081E0,9.770190597E0
1.110911663E1,-6.904626716E0,3.442828882E0,6.093224972E0,9.831293473E0
1.111911963E1,-7.268318267E0,3.422361873E0,5.690548865E0,9.844966104E0
1.112912363E1,-7.484848264E0,3.532356770E0,5.444486920E0,9.906711650E0
1.113912663E1,-7.648635206E0,3.635809802E0,5.072951914E0,9.871959003E0
1.114912963E1,-7.821385930E0,3.644502858E0,4.784978590E0,9.866737001E0
1.115913263E1,-7.906959347E0,3.511993842E0,4.366247198E0,9.691141390E0
1.116913663E1,-7.850374671E0,3.176815653E0,3.830431159E0,9.294769660E0
1.117913963E1,-7.457111996E0,2.467992783E0,3.050584792E0,8.426480598E0
1.118914263E1,-6.717726899E0,1.443963473E0,1.838252335E0,7.112809350E0
1.119914663E1,-5.418042887E0,1.479544365E-1,-7.248451182E-1,5.468315983E0
1.120914963E1,-3.037889610E0,-1.416286263E0,-4.717274264E0,5.786822664E0
1.121915263E1,1.060578792E0,-3.292723839E0,-1.254733775E1,1.301547319E1
1.122915563E1,1.021239135E1,-4.257855899E0,-2.815129346E1,3.024760482E1
1.123915963E1,1.898730788E1,-4.986803716E0,-2.127548475E1,2.894878793E1
1.124916263E1,1.928805006E1,-7.367574168E0,-3.986873414E0,2.102867527E1
1.125916563E1,1.410651418E1,-9.392374901E0,-3.284769287E0,1.726268107E1
1.126916963E1,7.362782959E0,-9.542546602E0,-8.780288951E0,1.491188260E1
1.127917263E1,4.700823416E0,-5.629897451E0,-9.471371369E0,1.197916365E1
1.128917563E1,3.507886465E0,-1.022375132E0,-6.091810530E0,7.103567688E0
1.129917863E1,1.625993729E0,1.790484676E0,-2.053014718E0,3.172469135E0
1.130918263E1,2.771875504E-1,3.387992524E0,9.975335285E-1,3.542654290E0
1.131918563E1,-1.120129760E0,3.190766525E0,3.334632880E0,4.749258694E0
1.132918863E1,-3.353475533E0,5.142994541E-1,4.513940556E0,5.646765572E0
1.133919163E1,-5.204391475E0,-3.443276194E0,4.986666307E0,7.988033702E0
1.134919563E1,-5.960731158E0,-7.228879967E0,5.394677998E0,1.081154810E1
1.135919863E1,-5.192369599E0,-9.040354977E0,6.283626101E0,1.217261998E1
1.136920162E1,-3.780081078E0,-9.575852927E0,6.389960057E0,1.211682969E1
1.137920563E1,-1.671822743E0,-1.023142520E1,5.974955095E0,1.196566510E1
1.138920863E1,-8.862510744E-1,-8.303692344E0,6.132669704E0,1.036081007E1
1.139921163E1,-2.221729986E0,-5.210906442E0,6.388186011E0,8.538064804E0
1.140921463E1,-3.196268755E0,-2.483348740E0,6.136559272E0,7.351225382E0
1.141921863E1,-3.561051688E0,-2.470355058E-1,6.842600622E0,7.717726280E0
1.142922163E1,-4.139643618E0,1.267901471E0,7.554666942E0,8.707308197E0
1.143922463E1,-4.986504339E0,1.810659909E0,7.700781845E0,9.351243546E0
1.144922763E1,-5.553136373E0,1.699700806E0,7.864312094E0,9.776180805E0
1.145923163E1,-5.325890769E0,1.882758417E0,7.791134191E0,9.623495400E0
1.146923463E1,-4.720661264E0,2.167185697E0,6.802092866E0,8.558609932E0
1.147923763E1,-3.881223875E0,2.135938177E0,5.613164474E0,7.150786395E0
1.148924163E1,-2.855436601E0,1.632432683E0,4.441692359E0,5.526932753E0
1.149924463E1,-1.956470171E0,9.975221264E-1,2.911943800E0,3.647223961E0
1.150924763E1,-9.612550637E-1,-8.815086901E-2,1.479384152E0,1.766453889E0
1.151925063E1,-7.144420445E-3,-1.174317954E0,5.375578872E-1,1.291527074E0
1.152925463E1,1.014853274E0,-1.815090344E0,1.309102707E0,2.457281022E0
1.153925763E1,1.711964171E0,-2.014441221E0,2.153628927E0,3.409825848E0
1.154926063E1,2.224141086E0,-1.720664828E0,2.346803391E0,3.662646198E0
1.155926463E1,2.811599440E0,-8.001750898E-1,3.044724128E0,4.220866807E0
1.156926763E1,3.029764319E0,2.428880757E-1,6.170101824E0,6.878126414E0
1.157927063E1,2.646976638E0,1.268815976E0,7.363831950E0,7.927319868E0
1.158927363E1,2.455433840E0,2.089478540E0,4.504946369E0,5.539821089E0
1.159927763E1,2.615270404E0,2.814798160E0,1.401077509E0,4.089712233E0
1.160928063E1,2.651259724E0,3.465875682E0,-5.189976919E-1,4.394409058E0
1.161928363E1,2.491002453E0,3.975538879E0,-1.431672041E0,4.905067526E0
1.162928663E1,2.112083876E0,4.127398671E0,-1.580068820E0,4.898258421E0
1.163929063E1,1.660951015E0,3.976666222E0,-9.377426787E-1,4.410441457E0
1.164929363E1,1.757132158E0,3.161869585E0,-1.003604400E0,3.753951849E0
1.165929663E1,2.650034732E0,1.338569165E0,-3.556014897E0,4.632460841E0
1.166930063E1,2.648821143E0,5.355464816E-3,-7.662824644E0,8.107722470E0
1.167930363E1,1.733585420E0,-5.342314428E-1,-1.063781605E1,1.079137859E1
1.168930663E1,1.048592585E0,-7.222796524E-1,-1.066860164E1,1.074431455E1
1.169930963E1,1.278559484E0,-2.290073705E-1,-8.033080280E0,8.137415899E0
1.170931363E1,1.357677281E0,2.951124823E-1,-4.974764299E0,5.165138799E0
1.171931663E1,1.212162011E0,5.980801141E-1,-2.392093585E0,2.747571342E0
1.172931963E1,7.619492099E-1,5.943209392E-1,-1.139942758E0,1.494407397E0
1.173932263E1,2.328829050E-1,4.733379543E-1,-8.382325700E-1,9.904125947E-1
1.174932663E1,5.039422810E-3,4.560091460E-1,-4.174809650E-1,6.182718602E-1
1.175932962E1,2.372083828E-1,6.776595497E-1,-5.824879289E-1,9.245444659E-1
1.176933263E1,5.534831080E-1,8.042248714E-1,-9.166852471E-1,1.339191188E0
1.177933663E1,8.629829568E-1,8.431182110E-1,-1.251154461E0,1.738095333E0
1.178933963E1,1.208162515E0,6.581000286E-1,-1.472808958E0,2.015420189E0
1.179934263E1,1.556437882E0,1.709532899E-1,-1.600370060E0,2.238952487E0
1.180934563E1,1.887573599E0,-3.957611901E-1,-1.651194059E0,2.538897956E0
1.181934963E1,2.157720809E0,-8.401817393E-1,-1.567391179E0,2.796136541E0
1.182935263E1,2.281307559E0,-1.153908248E0,-1.224368951E0,2.834598340E0
1.183935563E1,2.518705976E0,-9.416519809E-1,-7.527304897E-1,2.792345150E0
1.184935963E1,3.296419280E0,-3.344174659E-1,-7.191595781E-1,3.390487518E0
1.185936263E1,4.419362135E0,1.861665756E-1,-9.551339060E-1,4.525229326E0
1.186936563E1,5.093919445E0,5.155542666E-1,-1.065391343E0,5.229614730E0
1.187936862E1,5.009229543E0,6.380230290E-1,-1.254094149E0,5.203095822E0
1.188937263E1,4.087454294E0,4.261152560E-1,-1.426491701E0,4.350141997E0
1.189937563E1,2.781141879E0,-4.309497339E-1,-2.144564866E0,3.538308393E0
1.190937863E1,1.643543269E0,-1.727625353E0,-4.701817442E0,5.271907729E0
1.191938263E1,1.661871074E0,-3.045302417E0,-8.283320060E0,8.980482921E0
1.192938563E1,3.592499768E0,-4.109284582E0,-9.211059760E0,1.070681541E1
1.193938863E1,6.063985970E0,-4.497168987E0,-7.158560767E0,1.040391498E1
1.194939142E1,7.738270099E0,-3.968595895E0,-5.081546736E0,1.007237285E1
1.195939542E1,8.002316324E0,-2.601549620E0,-4.909425758E0,9.742052568E0
1.196939842E1,7.211769844E0,-1.293819255E0,-5.818768364E0,9.356369906E0
1.197940142E1,6.441623715E0,-9.439078367E-1,-5.942629348E0,8.814778594E0
1.198940442E1,5.543901865E0,-1.388109700E0,-5.446473219E0,7.894666995E0
1.199940842E1,4.210757747E0,-2.472539577E0,-3.900954427E0,6.249910256E0
1.200941142E1,2.867909004E0,-3.541628700E0,-9.761039217E-1,4.660559491E0
1.201941442E1,1.988186931E0,-3.826358866E0,1.987276812E0,4.747965730E0
1.202941842E1,1.828042804E0,-3.394429139E0,3.917635657E0,5.496522429E0
1.203942142E1,1.844803555E0,-3.138690637E0,4.538961961E0,5.818664345E0
1.204942442E1,2.134969585E0,-2.945798594E0,4.532156387E0,5.811735197E0
1.205942742E1,1.491095540E0,-3.340558156E0,4.659508159E0,5.923994513E0
1.206943142E1,7.404779416E-1,-3.642197886E0,4.555904269E0,5.879640867E0
1.207943442E1,2.012594086E-1,-3.888926997E0,4.494569900E0,5.946882976E0
1.208943742E1,-9.294529349E-2,-4.192667046E0,4.306526953E0,6.011095589E0
1.209944042E1,-3.067876178E-1,-4.510363814E0,3.966795537E0,6.014396663E0
1.210944442E1,-5.931702071E-1,-4.826548492E0,3.960251334E0,6.271444161E0
1.211944742E1,-1.060472665E0,-5.096916143E0,4.062556558E0,6.603599187E0
1.212945042E1,-1.905962507E0,-5.115185183E0,4.199484315E0,6.887196893E0
1.213945442E1,-2.366668721E0,-4.842207336E0,5.177325883E0,7.473472822E0
1.214945742E1,-2.530996531E0,-4.294523789E0,5.848778028E0,7.684860600E0
1.215946042E1,-2.380602052E0,-2.859410661E0,3.963432219E0,5.436201837E0
1.216946342E1,-2.172472749E0,-1.286267576E0,1.863372996E0,3.137878431E0
1.217946742E1,-1.698304490E0,3.645510918E-1,-1.199213644E0,2.110746078E0
1.218947042E1,-1.359056055E0,1.757867737E0,-4.777718979E0,5.269130003E0
1.219947342E1,-1.711347290E0,1.943737274E0,-2.481323265E0,3.586612508E0
1.220947742E1,-2.161506881E0,1.749931896E0,1.095085258E0,2.988910397E0
1.221948042E1,-2.478361650E0,1.307019344E0,4.018510652E0,4.898877820E0
1.222948342E1,-2.798098512E0,1.075625725E0,6.329354251E0,7.003359995E0
1.223948642E1,-2.844624222E0,1.410030912E0,7.764184374E0,8.388243745E0
1.224949042E1,-2.682862170E0,1.933210532E0,8.497083739E0,9.117866223E0
1.225949342E1,-2.543136520E0,2.380181637E0,8.557762635E0,9.239486420E0
1.226949642E1,-2.690189316E0,2.816700259E0,8.057036322E0,8.949120248E0
1.227949942E1,-3.520230814E0,3.100658008E0,7.346354038E0,8.716365224E0
1.228950342E1,-4.696507586E0,3.053845784E0,6.441920754E0,8.537066274E0
1.229950642E1,-5.801755890E0,2.879528006E0,5.792458817E0,8.689340141E0
1.230950942E1,-6.790252839E0,2.774819577E0,5.403259957E0,9.110563948E0
1.231951342E1,-7.320961919E0,2.800562528E0,4.931175646E0,9.260460417E0
1.232951642E1,-7.625952687E0,2.922129650E0,4.376954034E0,9.265620470E0
1.233951942E1,-7.956972336E0,3.009122186E0,3.513837761E0,9.204090444E0
1.234952242E1,-8.007028595E0,3.066676329E0,2.745952165E0,9.003180767E0
1.235952642E1,-7.853457323E0,3.006536547E0,2.487484184E0,8.769471563E0
1.236952942E1,-7.332346448E0,2.902284200E0,2.426766989E0,8.250803356E0
1.237953242E1,-6.441689204E0,2.742593232E0,2.756796119E0,7.524433685E0
1.238953642E1,-5.372900044E0,2.234407042E0,2.972554576E0,6.534271988E0
1.239953942E1,-4.306832470E0,1.482280862E0,2.648681102E0,5.268915833E0
1.240954242E1,-3.165512693E0,4.845119834E-1,1.865609118E0,3.706173208E0
1.241954542E1,-1.394687233E0,-8.263828951E-1,-8.846647248E-1,1.846806119E0
1.242954942E1,2.146507896E0,-2.490963569E0,-9.733516080E0,1.027393454E1
1.243955242E1,9.735218790E0,-3.536833398E0,-2.294786561E1,2.517713668E1
1.244955542E1,1.668181740E1,-3.719994505E0,-1.264165568E1,2.125871232E1
1.245955942E1,1.631191903E1,-4.884241215E0,-1.440477071E0,1.708828514E1
1.246956242E1,1.071154476E1,-6.308390813E0,-2.816594424E0,1.274622258E1
1.247956542E1,4.964442794E0,-6.425254435E0,-7.004551538E0,1.072349426E1
1.248956842E1,2.342365354E0,-4.633914896E0,-1.025100870E1,1.149099744E1
1.249957242E1,3.096364982E0,-1.406213264E0,-1.064769316E1,1.117757941E1
1.250957542E1,2.990042136E0,5.579033107E-1,-7.489735951E0,8.083795687E0
1.251957842E1,1.165278159E0,1.315796015E0,-3.230380826E0,3.677574285E0
1.252958242E1,-4.890073228E-1,1.591602745E0,1.480289885E-1,1.671598050E0
1.253958542E1,-2.269749953E0,1.288682476E0,1.917382265E0,3.238645106E0
1.254958842E1,-3.976658036E0,4.521160698E-1,2.563180776E0,4.752695421E0
1.255959142E1,-5.617546962E0,-1.458624782E0,2.049761474E0,6.155155743E0
1.256959542E1,-6.900748842E0,-4.006367154E0,1.312314144E0,8.086623571E0
1.257959842E1,-6.362532522E0,-6.186160033E0,3.397687207E0,9.502350994E0
1.258960142E1,-3.892649627E0,-7.468227553E0,6.009137918E0,1.034586306E1
1.259960442E1,-1.083135596E0,-7.819301398E0,6.398644341E0,1.016156024E1
1.260960842E1,7.096180916E-1,-7.429158797E0,7.009629260E0,1.023869428E1
1.261961142E1,9.872994393E-1,-5.989058579E0,6.912238036E0,9.199055251E0
1.262961442E1,6.419403711E-1,-3.762545863E0,6.196014930E0,7.277323672E0
1.263961842E1,-3.817629558E-1,-2.225155578E0,6.230804694E0,6.627215662E0
1.264962142E1,-1.777493040E0,-1.294126818E0,6.044542809E0,6.432009289E0
1.265962442E1,-2.755735142E0,-5.492997175E-1,6.085087402E0,6.702543923E0
1.266962742E1,-3.264065758E0,4.167714053E-1,5.813300632E0,6.679991611E0
1.267963142E1,-3.668421771E0,1.276921386E0,5.091963551E0,6.404368768E0
1.268963442E1,-3.997428223E0,1.323438326E0,4.313218507E0,6.027833382E0
1.269963742E1,-4.050166308E0,9.250464731E-1,3.593477715E0,5.492962788E0
1.270964142E1,-3.729048041E0,5.515134734E-1,3.178789673E0,4.930990792E0
1.271964442E1,-3.185742597E0,1.307355559E-1,3.116992790E0,4.458889069E0
1.272964742E1,-2.717908627E0,-5.528542399E-1,3.113786176E0,4.169932789E0
1.273965042E1,-2.385662524E0,-1.455229304E0,2.756631228E0,3.925314476E0
1.274965442E1,-2.241898495E0,-2.326434031E0,2.264067628E0,3.945175077E0
1.275965742E1,-1.861200902E0,-2.774676905E0,1.660003474E0,3.730752237E0
1.276966042E1,-1.457503871E0,-2.422165230E0,1.661072345E0,3.278774660E0
1.277966442E1,-1.369337214E0,-1.554640156E0,1.843159318E0,2.772945490E0
1.278966742E1,-1.472312821E0,-7.712635320E-1,2.001796033E0,2.601872371E0
1.279967042E1,-1.609330041E0,2.850342214E-2,2.142856602E0,2.680035456E0
1.280967342E1,-1.701309667E0,8.701019418E-1,2.323308694E0,3.008204657E0
1.281967742E1,-1.543147161E0,1.604818037E0,2.447889470E0,3.308913259E0
1.282968042E1,-1.038091863E0,2.263862976E0,2.563564938E0,3.574153813E0
1.283968342E1,-3.006997892E-1,2.630739505E0,2.905618283E0,3.931135753E0
1.284968642E1,4.963096181E-1,2.546015105E0,4.044979827E0,4.805244838E0
1.285969042E1,1.431309514E0,1.984100019E0,4.432404642E0,5.062757225E0
1.286969342E1,2.286466557E0,1.309157086E0,2.935567721E0,3.944537925E0
1.287969642E1,2.928134448E0,8.221764082E-1,8.132968265E-1,3.148237145E0
1.288970042E1,2.968063330E0,3.764145076E-1,-7.750303084E-1,3.090592142E0
1.289970342E1,2.602176149E0,8.334972024E-2,-1.573875303E0,3.042260895E0
1.290970642E1,2.208633977E0,5.375520766E-2,-1.985963527E0,2.970690963E0
1.291970942E1,1.411495347E0,2.097261769E-1,-2.666971485E0,3.024738184E0
1.292971342E1,4.780160192E-1,3.614240009E-1,-3.815007082E0,3.861787883E0
1.293971642E1,-2.158069888E-1,4.746559167E-1,-5.035319234E0,5.062243641E0
1.294971942E1,-6.222770619E-1,5.209377980E-1,-5.486288665E0,5.545986679E0
1.295972254E1,-7.512838885E-1,5.870230293E-1,-4.926761582E0,5.018167316E0
1.296972554E1,-9.004779348E-1,3.745176709E-1,-3.769275131E0,3.893399416E0
1.297972854E1,-1.012050411E0,-3.907167971E-2,-2.714745868E0,2.897519242E0
1.298973154E1,-1.050468957E0,-4.384195518E-1,-2.009717402E0,2.309688457E0
1.299973554E1,-1.119236598E0,-8.821629936E-1,-1.336536966E0,1.953774084E0
1.300973854E1,-1.101679748E0,-1.150409274E0,-9.303221235E-1,1.844624357E0
1.301974154E1,-1.114472871E0,-1.195631055E0,-5.466820653E-1,1.723497804E0
1.302974554E1,-1.194805428E0,-9.595269191E-1,-2.757846572E-1,1.557019299E0
1.303974854E1,-1.234669113E0,-5.752525842E-1,-1.233212864E-1,1.367673753E0
1.304975154E1,-1.201197897E0,-9.079556465E-2,-2.266790092E-2,1.204837772E0
1.305975454E1,-1.159204364E0,5.061718243E-1,-3.064525723E-2,1.265268274E0
1.306975854E1,-1.060204571E0,1.084700019E0,-1.890732265E-1,1.528514490E0
1.307976154E1,-7.857736900E-1,1.409287146E0,-4.608646739E-1,1.678072346E0
1.308976454E1,-2.934819862E-1,1.396588163E0,-6.801791149E-1,1.580896518E0
1.309976754E1,3.244444549E-1,1.169982828E0,-7.693428679E-1,1.437363027E0
1.310977154E1,1.159600512E0,9.476751977E-1,-8.466847202E-1,1.720359452E0
1.311977454E1,2.225227791E0,7.311136258E-1,-9.639824975E-1,2.532869541E0
1.312977754E1,2.782255481E0,4.986330092E-1,-1.139813096E0,3.047745779E0
1.313978154E1,3.105844488E0,5.288806558E-1,-7.791872402E-1,3.245476465E0
1.314978454E1,3.539221401E0,1.078576815E0,4.568407662E-1,3.728018181E0
1.315978754E1,3.300072620E0,1.971884601E0,-1.681661561E0,4.196045017E0
1.316979054E1,1.774031780E0,1.174300997E0,-6.464091057E0,6.805192486E0
1.317979454E1,6.574591738E-1,-6.024550009E-1,-7.366146863E0,7.419927506E0
1.318979754E1,1.044569993E-1,-1.858012415E0,-5.356847683E0,5.670885160E0
1.319980054E1,-4.585860139E-1,-2.852441365E0,-3.773616396E0,4.752568103E0
1.320980454E1,-8.866279274E-1,-3.515603912E0,-2.679159713E0,4.508156688E0
1.321980754E1,-1.200060906E0,-4.232584818E0,-1.928950251E0,4.803724543E0
1.322981054E1,-1.746871464E0,-5.144446405E0,-1.370712479E0,5.603190290E0
1.323981354E1,-2.228362191E0,-6.108914806E0,-1.133271158E0,6.600662215E0
1.324981754E1,-2.626277495E0,-7.161467417E0,-1.216709683E0,7.724268995E0
1.325982054E1,-3.180867189E0,-8.462310932E0,-1.477929949E0,9.160398426E0
1.326982354E1,-3.744989013E0,-9.812715447E0,-1.597100297E0,1.062379671E1
1.327982654E1,-4.388908374E0,-1.095979415E1,-1.429557688E0,1.189215034E1
1.328983054E1,-5.236832412E0,-1.182437983E1,-8.235768163E-1,1.295834290E1
1.329983354E1,-6.084457657E0,-1.206797717E1,1.821760336E-2,1.351506677E1
1.330983654E1,-6.794586210E0,-1.148924783E1,3.851947597E-1,1.335356104E1
1.331984054E1,-7.201860568E0,-1.004366175E1,6.096168168E-1,1.237390681E1
1.332984354E1,-7.489963408E0,-8.126939785E0,1.010511204E0,1.109810051E1
1.333984654E1,-7.573736467E0,-6.289606633E0,1.295520648E0,9.929703390E0
1.334984954E1,-7.293030354E0,-4.810801941E0,1.540943638E0,8.871674834E0
1.335985354E1,-6.832493709E0,-3.746577702E0,1.930538062E0,8.027875931E0
1.336985654E1,-6.407250273E0,-3.177325530E0,2.327363884E0,7.520962454E0
1.337985954E1,-5.980276646E0,-2.916206421E0,2.982796851E0,7.291436464E0
1.338986354E1,-5.638860648E0,-2.741048398E0,3.829293584E0,7.346671700E0
1.339986654E1,-5.176089197E0,-2.359011793E0,4.683058990E0,7.368030776E0
1.340986954E1,-4.861095304E0,-1.816527005E0,5.323850091E0,7.434608107E0
1.341987254E1,-4.552304138E0,-1.127908604E0,5.730280110E0,7.404847124E0
1.342987654E1,-4.045126593E0,-3.060929686E-1,5.860236232E0,7.127349490E0
1.343987954E1,-3.310381553E0,5.608251643E-1,5.500508509E0,6.444280002E0
1.344988254E1,-2.413874463E0,1.277692049E0,5.438061415E0,6.085375818E0
1.345988554E1,-1.476532172E0,1.598180863E0,5.619212834E0,6.025768183E0
1.346988954E1,-6.166695821E-1,1.460140380E0,5.685810281E0,5.902603651E0
1.347989254E1,8.500155866E-2,9.155394852E-1,5.949660040E0,6.020290060E0
1.348989554E1,7.050686654E-1,3.069577718E-1,5.891602451E0,5.941575914E0
1.349989954E1,1.367425175E0,6.895855308E-2,5.356692731E0,5.528902595E0
1.350990254E1,1.785870053E0,8.503898084E-2,4.508837983E0,4.850379721E0
1.351990554E1,1.981871645E0,3.219488633E-1,3.689439880E0,4.200408660E0
1.352990854E1,2.012858672E0,5.515637594E-1,3.487304851E0,4.064125704E0
1.353991254E1,1.821864051E0,8.999812138E-1,3.353208315E0,3.920862253E0
1.354991554E1,1.652656740E0,1.328075752E0,3.557738071E0,4.141564884E0
1.355991854E1,1.363900765E0,1.798502378E0,3.948855403E0,4.548438753E0
1.356992254E1,1.187234746E0,2.392260815E0,3.871582401E0,4.703359272E0
1.357992554E1,1.030791322E0,2.875143179E0,3.794964873E0,4.871420474E0
1.358992854E1,1.261465733E0,3.393123456E0,3.449689128E0,5.000493741E0
1.359993154E1,1.657427775E0,3.817579272E0,3.207738653E0,5.254575681E0
1.360993554E1,1.610209609E0,3.844520903E0,2.730340684E0,4.982757892E0
1.361993854E1,1.875355549E0,3.862872974E0,2.110394615E0,4.784611946E0
1.362994154E1,2.175869105E0,3.717236958E0,1.292144612E0,4.496876100E0
1.363994454E1,2.418954231E0,3.404314442E0,2.701211902E-1,4.184932717E0
1.364994854E1,2.476165728E0,2.978546510E0,-9.182669190E-1,3.980747438E0
1.365995154E1,2.523284054E0,2.505441860E0,-2.303460320E0,4.236759466E0
1.366995454E1,2.461590666E0,2.054431499E0,-3.759251249E0,4.940858968E0
1.367995854E1,2.428784278E0,1.698802088E0,-5.131187258E0,5.925707071E0
1.368996154E1,2.285972175E0,1.278588427E0,-6.006444690E0,6.552696771E0
1.369996454E1,1.772065946E0,8.375218409E-1,-6.300872464E0,6.598685805E0
1.370996754E1,1.043646718E0,3.814086145E-1,-6.406142811E0,6.501794884E0
1.371997154E1,2.412821379E-1,-3.285322434E-1,-7.017726485E0,7.029554432E0
1.372997454E1,-2.235469481E-1,-1.054209128E0,-7.672125810E0,7.747441163E0
1.373997754E1,4.310011894E-2,-1.149508803E0,-7.843140496E0,7.927047429E0
1.374998154E1,1.052198271E0,-8.274862647E-1,-7.945493667E0,8.057463890E0
1.375998454E1,1.775742091E0,-6.832670295E-1,-8.101978022E0,8.322389181E0
1.376998754E1,1.911342238E0,-7.376052046E-1,-7.575037472E0,7.847195887E0
1.377999054E1,1.555857839E0,-8.274184370E-1,-6.144409159E0,6.392110668E0
1.378999454E1,1.185369484E0,-5.111302632E-1,-4.790602442E0,4.961474248E0
1.379999754E1,9.926499340E-1,1.019117063E-1,-3.542560454E0,3.680417701E0
1.381000054E1,6.162249014E-1,8.360460037E-1,-2.488949203E0,2.696956467E0
1.382000354E1,-1.683787608E-1,1.414527420E0,-1.850696671E0,2.335448008E0
1.383000754E1,-1.484078881E0,1.836953668E0,-1.093650936E0,2.602491359E0
1.384001054E1,-2.359088976E0,2.639644815E0,2.047829407E-1,3.546119230E0
1.385001354E1,-3.443163927E0,3.404151304E0,7.920503837E-1,4.906217254E0
1.386001754E1,-4.713810959E0,3.026498356E0,7.520913890E-1,5.652021542E0
1.387002054E1,-6.206590204E0,8.435187453E-1,4.264587799E-1,6.278148846E0
1.388002354E1,-7.017452835E0,-2.179149100E0,1.439584494E-1,7.349425768E0
1.389002654E1,-6.659509681E0,-5.042579722E0,-4.360664861E-1,8.364617949E0
1.390003054E1,-5.039679503E0,-7.089714480E0,-1.246200700E0,8.787231480E0
1.391003354E1,-1.617333125E0,-8.283754508E0,-4.687201157E-1,8.453168266E0
1.392003654E1,1.220847757E0,-8.197569473E0,4.075836754E-1,8.297996081E0
1.393004054E1,3.078774511E0,-6.529441293E0,-1.681691089E0,7.412188678E0
1.394004354E1,3.155769477E0,-3.862576520E0,-1.734710863E0,5.280871154E0
1.395004654E1,3.422518578E-1,-2.026879418E0,2.233001079E0,3.035073365E0
1.396005025E1,-2.246420439E0,-7.005063754E-1,4.906826670E0,5.441880368E0
1.397005425E1,-4.243391350E0,2.486809123E-1,5.987941761E0,7.343273036E0
1.398005725E1,-5.727517301E0,1.078175696E0,6.216400663E0,8.521182691E0
1.399006025E1,-6.132455111E0,1.914200649E0,6.588178328E0,9.201916295E0
1.400006325E1,-6.433147591E0,2.257757313E0,6.877005054E0,9.683803722E0
1.401006725E1,-6.468353677E0,2.215796524E0,6.935102988E0,9.738840125E0
1.402007025E1,-5.805904489E0,1.877014697E0,6.302803799E0,8.772516562E0
1.403007325E1,-4.189602520E0,1.651651311E0,5.373503476E0,7.011081296E0
1.404007725E1,-2.199999686E0,1.271410970E0,4.683518288E0,5.328398262E0
1.405008025E1,-5.938326967E-1,7.267317224E-1,3.762406114E0,3.877689523E0
1.406008325E1,5.449160600E-1,-3.024209172E-1,3.256483966E0,3.315581359E0
1.407008625E1,1.403338773E0,-1.641960720E0,3.340734158E0,3.978177903E0
1.408009025E1,2.864262096E0,-2.528582216E0,4.185647464E0,5.667218901E0
1.409009325E1,4.400822369E0,-2.795041003E0,5.104063779E0,7.295954961E0
1.410009625E1,5.049184737E0,-2.842760130E0,4.834014802E0,7.546075189E0
1.411010025E1,4.881055067E0,-2.531495883E0,4.700319386E0,7.233683177E0
1.412010325E1,4.721642134E0,-1.734015191E0,4.600687509E0,6.816673579E0
1.413010625E1,4.648986679E0,-4.359210366E-1,3.748323095E0,5.987740001E0
1.414010925E1,4.194808004E0,7.130252641E-1,2.479242826E0,4.924577566E0
1.415011325E1,3.297006925E0,1.249278674E0,1.353640364E0,3.776677654E0
1.416011625E1,2.318494973E0,1.785187683E0,6.697125989E-1,3.001804286E0
1.417011925E1,1.745985610E0,2.336281326E0,-1.686798924E-1,2.921494326E0
1.418012225E1,1.503690735E0,2.715256914E0,-1.334370280E0,3.378498184E0
1.419012625E1,1.334999148E0,2.928258117E0,-2.101707407E0,3.843708151E0
1.420012925E1,1.176938676E0,2.700686238E0,-2.916194726E0,4.145248181E0
1.421013225E1,1.066314619E0,2.094309509E0,-3.461380343E0,4.183815611E0
1.422013625E1,1.202581640E0,1.380881957E0,-3.365359706E0,3.831277011E0
1.423013925E1,1.467597919E0,5.586768973E-1,-2.946914828E0,3.339202080E0
1.424014225E1,1.443501836E0,-1.932434607E-1,-2.757914107E0,3.118834847E0
1.425014525E1,1.502718928E0,-5.755215561E-1,-3.041468690E0,3.440918632E0
1.426014925E1,1.521224780E0,-9.512683117E-1,-3.631736340E0,4.050746237E0
1.427015225E1,1.306219737E0,-1.189706656E0,-3.987645539E0,4.361528273E0
1.428015525E1,9.685433257E-1,-1.036445287E0,-3.865169468E0,4.117260014E0
1.429015825E1,6.776686129E-1,-7.170212513E-1,-3.267327043E0,3.413030945E0
1.430016225E1,3.790761602E-1,-2.465753299E-1,-2.491212661E0,2.531923903E0
1.431016525E1,1.428898707E-1,2.106757647E-1,-1.716934889E0,1.735703663E0
1.432016825E1,-5.881948113E-2,6.117333627E-1,-1.227498673E0,1.372745581E0
1.433017225E1,-3.175909334E-1,7.868416840E-1,-8.611197415E-1,1.208929711E0
1.434017525E1,-5.366738248E-1,7.197466385E-1,-7.859283489E-1,1.193204671E0
1.435017825E1,-5.168508866E-1,7.831450742E-1,-1.279284831E0,1.586512126E0
1.436018125E1,-3.395174074E-1,8.403694350E-1,-1.715461975E0,1.940181086E0
1.437018525E1,-2.798991966E-1,8.709246451E-1,-2.036598076E0,2.232618422E0
1.438018825E1,-1.576602298E-1,9.692397290E-1,-2.307703352E0,2.507942815E0
1.439019125E1,1.107988894E-2,9.749238074E-1,-2.290330690E0,2.489219529E0
1.440019525E1,2.593386322E-1,8.072227389E-1,-2.056383884E0,2.224315570E0
1.441019825E1,5.788676253E-1,5.767582422E-1,-1.911025026E0,2.078401898E0
1.442020125E1,9.725007212E-1,3.460803223E-1,-1.757453170E0,2.038178325E0
1.443020425E1,1.340810696E0,1.481737071E-1,-1.643112330E0,2.125922599E0
1.444020825E1,1.685290927E0,-6.674070418E-2,-1.645697091E0,2.356475917E0
1.445021125E1,2.126411893E0,-2.193419230E-1,-1.531729888E0,2.629816508E0
1.446021425E1,2.535770783E0,-3.821073568E-1,-1.396551325E0,2.920016284E0
1.447021725E1,2.948588593E0,-5.255179220E-1,-1.354940785E0,3.287279773E0
1.448022125E1,3.435844675E0,-6.707288450E-1,-1.342930019E0,3.749448873E0
1.449022425E1,3.910452060E0,-8.204584962E-1,-1.401762364E0,4.234350621E0
1.450022725E1,4.308698024E0,-9.570073539E-1,-1.433714474E0,4.640719657E0
1.451023125E1,4.696064659E0,-9.344172210E-1,-1.304116201E0,4.962547520E0
1.452023425E1,4.859133563E0,-7.669599813E-1,-1.417055756E0,5.119321597E0
1.453023725E1,4.677289834E0,-6.473961157E-1,-1.849816081E0,5.071289920E0
1.454024025E1,3.977545059E0,-8.465458488E-1,-2.391524066E0,4.717721052E0
1.455024425E1,2.488248999E0,-1.442356074E0,-4.724598194E0,5.531148364E0
1.456024725E1,-6.014881638E-1,-2.909127197E0,-1.547474276E1,1.575729903E1
1.457025025E1,-2.122353925E0,-4.078283814E0,-2.195955986E1,2.243566478E1
1.458025325E1,4.535714418E-1,-4.179324870E0,-1.223449184E1,1.293658664E1
1.459025725E1,3.137456582E0,-4.327437766E0,-2.993377388E0,6.126227192E0
1.460026025E1,4.486522085E0,-4.497053213E0,-1.199000806E-1,6.353482828E0
1.461026325E1,5.684325673E0,-3.929619525E0,-1.272906688E0,7.026646384E0
1.462026725E1,6.478919595E0,-3.280224831E0,-3.315609549E0,7.983078401E0
1.463027025E1,6.844857062E0,-3.144660645E0,-4.864965576E0,8.967098127E0
1.464027325E1,6.884022882E0,-3.185353757E0,-5.674494165E0,9.472915793E0
1.465027625E1,6.336385528E0,-3.264108151E0,-5.538575052E0,9.026627121E0
1.466028025E1,5.528604965E0,-3.320474725E0,-4.179633310E0,7.685073836E0
1.467028325E1,4.693436043E0,-3.517053437E0,-2.090636873E0,6.226457204E0
1.468028625E1,3.729798239E0,-3.737964753E0,4.467214286E-2,5.280697965E0
1.469028925E1,2.390264283E0,-3.643775464E0,1.486473901E0,4.604353118E0
1.470029325E1,1.433223308E0,-3.759698853E0,2.395453395E0,4.682698099E0
1.471029625E1,9.205695525E-1,-4.227049844E0,2.914622410E0,5.216361038E0
1.472029925E1,5.355228004E-1,-4.906585765E0,3.210382179E0,5.887947204E0
1.473030325E1,-3.693861544E-2,-5.782696306E0,3.487979327E0,6.753291109E0
1.474030625E1,-5.745345461E-1,-6.398268365E0,3.691981080E0,7.409362477E0
1.475030925E1,-1.157258703E0,-6.673261748E0,3.591552812E0,7.666219516E0
1.476031225E1,-1.426900713E0,-6.556420346E0,3.749244032E0,7.686320590E0
1.477031625E1,-1.538839225E0,-5.852488087E0,3.369327042E0,6.926182764E0
1.478031925E1,-2.028335375E0,-4.987030588E0,2.319743646E0,5.862237548E0
1.479032225E1,-2.367235901E0,-3.983985182E0,8.474872506E-1,4.711069771E0
1.480032625E1,-3.033934845E0,-3.204970581E0,-2.584726596E-1,4.420792371E0
1.481032925E1,-3.290534642E0,-1.691898866E0,-1.433759497E0,3.968098574E0
1.482033225E1,-3.180715161E0,-4.144371969E-1,-1.522181531E-1,3.211211219E0
1.483033525E1,-3.552015109E0,2.754026878E-1,1.899303259E0,4.037327191E0
1.484033925E1,-3.786943370E0,8.144230002E-1,2.851494116E0,4.809910977E0
1.485034225E1,-3.447752237E0,1.230184591E0,3.598078305E0,5.132885846E0
1.486034525E1,-2.436865715E0,1.745183372E0,4.521200459E0,5.424503028E0
1.487034825E1,-1.018680861E0,2.427057011E0,4.836092902E0,5.506006810E0
1.488035225E1,-1.739283532E-1,2.896671458E0,5.135537002E0,5.898702985E0
1.489035525E1,4.909439206E-2,3.265216783E0,5.636368564E0,6.514038800E0
1.490035825E1,1.791317904E-1,3.433311369E0,6.092465419E0,6.995559308E0
1.491036225E1,-1.500904244E-1,3.480049918E0,6.411804669E0,7.296883834E0
1.492036525E1,-1.408799488E0,3.298390961E0,6.898263191E0,7.774968423E0
1.493036825E1,-2.754393498E0,2.862011502E0,7.449598324E0,8.442411301E0
1.494037125E1,-3.796536312E0,2.647291803E0,7.595195163E0,8.894314557E0
1.495037525E1,-4.590208129E0,2.861201663E0,7.323913009E0,9.104734339E0
1.496037867E1,-5.150345076E0,3.126868737E0,6.847827448E0,9.121189793E0
1.497038167E1,-5.470400026E0,3.528674194E0,6.303261636E0,9.061342354E0
1.498038567E1,-5.701591916E0,3.863076457E0,5.994388316E0,9.130399847E0
1.499038867E1,-5.666599839E0,4.395156124E0,6.092932611E0,9.410184849E0
1.500039167E1,-5.592789266E0,4.581150792E0,6.132207774E0,9.479989796E0
1.501039467E1,-5.468514884E0,4.815375048E0,6.173335919E0,9.550003574E0
1.502039867E1,-5.280226353E0,5.065510747E0,5.987414927E0,9.454592904E0
1.503040167E1,-5.123122194E0,5.113400613E0,5.507854950E0,9.095587556E0
1.504040467E1,-4.915613866E0,4.826564280E0,4.906997409E0,8.457990659E0
1.505040767E1,-4.611009306E0,4.201460674E0,4.125150124E0,7.478672487E0
1.506041167E1,-3.765295516E0,3.543987467E0,2.927199478E0,5.941867911E0
1.507041467E1,-2.846138066E0,2.507526392E0,1.011129767E0,3.925630383E0
1.508041767E1,-1.511293869E0,9.029299647E-1,-1.866304790E0,2.565615959E0
1.509042167E1,1.260562339E0,-1.516108759E0,-1.052510512E1,1.070819504E1
1.510042467E1,7.806743917E0,-4.844880683E0,-2.930159514E1,3.070833108E1
1.511042767E1,1.632402511E1,-7.787893664E0,-2.703522137E1,3.252734662E1
1.512043067E1,1.631617464E1,-1.067216610E1,-9.424298944E0,2.165479380E1
1.513043467E1,9.306569935E0,-1.313621201E1,-7.603576562E0,1.780411993E1
1.514043767E1,3.297468855E0,-1.281049053E1,-8.920142655E0,1.595465178E1
1.515044067E1,2.701206640E0,-8.436301348E0,-7.561509354E0,1.164663563E1
1.516044367E1,2.543959516E0,-3.362967610E0,-4.322697720E0,6.038791001E0
1.517044767E1,1.231237383E0,2.182701284E-1,-1.517969343E-1,1.259614882E0
1.518045067E1,1.810575709E-1,2.642119356E0,2.381978486E0,3.561937401E0
1.519045367E1,-1.335007334E0,3.164578015E0,3.532517568E0,4.927015219E0
1.520045767E1,-3.667203796E0,1.265599422E0,3.399021834E0,5.157855660E0
1.521046067E1,-6.342557849E0,-2.325111390E0,2.088660222E0,7.070833371E0
1.522046367E1,-7.557605753E0,-5.307566764E0,2.421595419E0,9.547344869E0
1.523046667E1,-7.956556014E0,-7.368297468E0,3.698704208E0,1.145770501E1
1.524047067E1,-7.172635599E0,-8.140250972E0,5.441214234E0,1.213742970E1
1.525047367E1,-4.881078748E0,-8.211028009E0,5.667817229E0,1.110720770E1
1.526047667E1,-1.757460479E0,-7.640603471E0,4.984414544E0,9.290418563E0
1.527048067E1,4.746363285E-1,-5.646508806E0,4.632704230E0,7.319172755E0
1.528048367E1,4.380500078E-2,-2.856070147E0,5.395147530E0,6.104643514E0
1.529048667E1,-1.589145745E0,-9.663137823E-1,5.994153258E0,6.276067225E0
1.530048967E1,-2.528610867E0,5.865055507E-1,5.986762962E0,6.525273362E0
1.531049367E1,-3.178065203E0,2.015168615E0,6.579527957E0,7.579656399E0
1.532049667E1,-3.791193419E0,3.114302486E0,7.413154968E0,8.889707199E0
1.533049967E1,-3.727196813E0,3.931118751E0,7.527528845E0,9.274124284E0
1.534050267E1,-3.508746298E0,4.115861530E0,6.328504651E0,8.324757524E0
1.535050667E1,-3.425337813E0,3.704540314E0,5.682144077E0,7.598902512E0
1.536050967E1,-2.912041741E0,3.449889979E0,6.040357372E0,7.541063927E0
1.537051267E1,-2.165449951E0,2.825350045E0,5.514305599E0,6.563485553E0
1.538051667E1,-1.100500073E0,1.844051603E0,4.016802095E0,4.554813475E0
1.539051967E1,1.413470829E-1,6.193709958E-1,3.046114011E0,3.111657114E0
1.540052267E1,1.666698536E0,-8.308747262E-1,2.452550286E0,3.079486926E0
1.541052567E1,3.400074041E0,-2.293954502E0,2.782169527E0,4.956127320E0
1.542052967E1,5.299394696E0,-3.919278724E0,5.883517506E0,8.835163162E0
1.543053267E1,6.889513417E0,-4.605464684E0,7.512541262E0,1.118543590E1
1.544053567E1,6.879620513E0,-3.193893031E0,5.301368131E0,9.253898376E0
1.545053967E1,6.024961653E0,-1.224830881E0,1.599173135E0,6.352773278E0
1.546054267E1,5.253432072E0,1.748826188E-1,-1.579145398E0,5.488427157E0
1.547054567E1,3.715654117E0,1.487746840E0,-5.436653405E0,6.751050024E0
1.548054867E1,2.000145656E0,2.472560627E0,-9.143770003E0,9.681046873E0
1.549055267E1,7.804141322E-1,3.234989017E0,-1.067808231E1,1.118461631E1
1.550055567E1,5.291528437E-1,3.816185880E0,-8.696360357E0,9.511569842E0
1.551055867E1,3.585574034E-1,4.136344911E0,-5.670664823E0,7.028111565E0
1.552056167E1,1.537297314E-1,4.041969096E0,-2.768770925E0,4.901758810E0
1.553056567E1,-3.956796214E-1,3.387420081E0,-1.381314066E-1,3.413247348E0
1.554056867E1,-6.215982002E-1,2.479013030E0,4.637634310E-1,2.597492338E0
1.555057167E1,-4.325416383E-1,1.727013150E0,-4.200815141E-2,1.780851306E0
1.556057567E1,-3.564184919E-1,1.034709833E0,-3.033360064E-1,1.135636964E0
1.557057867E1,-3.654840150E-1,4.017580944E-1,-6.920214808E-1,8.797055539E-1
1.558058167E1,-3.906878534E-1,2.212703347E-1,-3.115215236E-1,5.464825885E-1
1.559058467E1,-4.382692784E-2,3.029565221E-1,-2.134455907E-1,3.731788768E-1
1.560058867E1,1.997394249E-1,4.439521873E-1,-4.062499255E-1,6.340570829E-1
1.561059167E1,-3.548382819E-3,4.617686534E-1,-6.809266815E-1,8.227417735E-1
1.562059467E1,-3.439133441E-1,4.960766065E-1,-1.108504034E0,1.262200293E0
1.563059767E1,-5.814944869E-1,4.818842447E-1,-1.613932092E0,1.781888061E0
1.564060167E1,-7.001064259E-1,3.578817576E-1,-2.053876013E0,2.199235103E0
1.565060467E1,-6.655996674E-1,6.266227126E-2,-2.354421144E0,2.447498396E0
1.566060767E1,-4.832115626E-1,-2.678176796E-1,-2.562980801E0,2.621848643E0
1.567061167E1,-1.271503356E-1,-4.022872674E-1,-2.821099996E0,2.852473916E0
1.568061467E1,2.690005714E-1,-4.229536664E-1,-3.087334250E0,3.127760202E0
1.569061767E1,7.452206182E-1,-3.818266904E-1,-3.204254589E0,3.311856408E0
1.570062067E1,1.198040400E0,-3.040715861E-1,-3.086431147E0,3.324728193E0
1.571062467E1,1.577080893E0,-2.660436344E-1,-2.797991508E0,3.222843439E0
1.572062767E1,1.837971961E0,-1.438882828E-1,-2.676712069E0,3.250174190E0
1.573063067E1,2.269765448E0,6.189043880E-2,-3.166931520E0,3.896809062E0
1.574063467E1,3.359600491E0,3.621917403E-1,-3.806907519E0,5.090249814E0
1.575063767E1,4.443957571E0,5.740585828E-1,-3.730575626E0,5.830565723E0
1.576064067E1,5.123868883E0,6.751458317E-1,-3.436439337E0,6.206365244E0
1.577064367E1,5.651216399E0,7.040059340E-1,-3.131435705E0,6.499058448E0
1.578064767E1,6.178417735E0,4.969303000E-1,-1.688941636E0,6.424352829E0
1.579065067E1,6.289535297E0,-2.958164871E-1,8.430515528E-2,6.297052406E0
1.580065367E1,6.272476630E0,-1.628139072E0,1.139983104E0,6.579845089E0
1.581065667E1,6.382820606E0,-2.953912776E0,-6.154369891E-2,7.033476182E0
1.582066067E1,6.673758177E0,-4.207666324E0,-4.098787660E0,8.890644767E0
1.583066367E1,7.467552785E0,-4.968929948E0,-9.494660829E0,1.306151575E1
1.584066667E1,8.393136617E0,-4.680848742E0,-1.333512259E1,1.643717074E1
1.585067067E1,8.747096647E0,-3.828285524E0,-1.187454192E1,1.523719842E1
1.586067367E1,8.265406530E0,-3.388173788E0,-6.750150880E0,1.119648175E1
1.587067667E1,7.105289708E0,-3.345976771E0,-3.886292827E0,8.762646537E0
1.588067967E1,5.256881345E0,-3.349483346E0,-3.486561669E0,7.142125204E0
1.589068367E1,3.335539199E0,-3.572418968E0,-3.208611642E0,5.846639009E0
1.590068667E1,2.160999343E0,-4.021788601E0,-1.738921151E0,4.885544850E0
1.591068967E1,1.589203340E0,-4.111832213E0,5.322404659E-1,4.440271537E0
1.592069267E1,1.146173551E0,-4.331250735E0,2.797543611E0,5.282016376E0
1.593069667E1,7.307835504E-1,-4.885756813E0,4.167619328E0,6.463258861E0
1.594069967E1,4.975781715E-1,-5.450135331E0,4.691350341E0,7.208351211E0
1.595070267E1,1.859908667E-1,-5.995837256E0,4.987497196E0,7.801268185E0
1.596070650E1,-1.583899623E-1,-6.640412090E0,5.217179335E0,8.446248891E0
1.597070950E1,-3.046975306E-1,-7.002522554E0,5.366437701E0,8.827616683E0
1.598071250E1,-4.829981393E-1,-6.939821107E0,5.253775889E0,8.717600890E0
1.599071550E1,-8.550213879E-1,-6.357986312E0,5.051794349E0,8.165517599E0
1.600071950E1,-1.239688071E0,-5.207465356E0,5.001267389E0,7.325789885E0
1.601072250E1,-1.640725788E0,-4.097418242E0,4.940782621E0,6.625115114E0
1.602072550E1,-1.833654669E0,-3.116573544E0,4.785265396E0,5.997840029E0
1.603072850E1,-1.647602699E0,-1.646164868E0,4.276848825E0,4.869896231E0
1.604073250E1,-1.795588126E0,7.736217141E-2,2.610747875E0,3.169562444E0
1.605073550E1,-1.692198243E0,1.510443977E0,6.492854972E-1,2.359353207E0
1.606073850E1,-8.084465611E-1,2.784440001E0,-9.193004143E-1,3.041678026E0
1.607074250E1,2.863030672E-1,3.714522681E0,-1.569512841E0,4.042649966E0
1.608074550E1,9.297429568E-1,3.978260173E0,-7.182880506E-1,4.148121707E0
1.609074850E1,1.302398289E0,3.829071974E0,1.847287745E0,4.446403659E0
1.610075150E1,1.513682457E0,3.681703429E0,4.796283012E0,6.233017363E0
1.611075550E1,1.593706866E0,3.622854127E0,7.564853961E0,8.537680543E0
1.612075850E1,1.492224930E0,3.499091375E0,8.658671544E0,9.457429280E0
1.613076150E1,5.202191752E-1,3.231237443E0,8.453154777E0,9.064620736E0
1.614076450E1,-1.236826151E0,2.844739412E0,8.141340308E0,8.712273140E0
1.615076850E1,-2.683456247E0,2.513200530E0,7.947178250E0,8.756412306E0
1.616077150E1,-3.849148974E0,2.322171410E0,7.913959048E0,9.101602919E0
1.617077450E1,-4.666718068E0,2.348160530E0,8.038777807E0,9.587182278E0
1.618077850E1,-5.162777426E0,2.536308142E0,7.892696233E0,9.766359791E0
1.619078150E1,-5.447873043E0,2.785685458E0,7.659097044E0,9.803118468E0
1.620078450E1,-5.600886490E0,3.087535686E0,7.638769784E0,9.962610597E0
1.621078750E1,-5.771615832E0,3.398668370E0,7.791572147E0,1.027477944E1
1.622079150E1,-6.076510706E0,3.620090148E0,7.952466472E0,1.064287358E1
1.623079450E1,-6.254829733E0,3.865080882E0,7.756619831E0,1.068769837E1
1.624079750E1,-6.292631398E0,4.162918752E0,7.427548474E0,1.058751995E1
1.625080150E1,-6.205269318E0,4.405205149E0,6.951575764E0,1.030706580E1
1.626080450E1,-6.230117061E0,4.446057306E0,6.610789511E0,1.011357119E1
1.627080750E1,-6.392664394E0,4.243920230E0,6.257940452E0,9.901456240E0
1.628081050E1,-6.461054597E0,3.852495335E0,5.759074724E0,9.473852885E0
1.629081450E1,-6.349428327E0,3.106773026E0,4.772918123E0,8.529245343E0
1.630081750E1,-6.236820894E0,1.814374645E0,1.638330477E0,6.698807130E0
1.631082050E1,-5.368994104E0,-3.964178324E-1,-5.791855384E0,7.907517535E0
1.632082350E1,-2.537886305E0,-3.842041098E0,-1.961946089E1,2.015255299E1
1.633082750E1,6.384950162E0,-7.870923541E0,-4.025149346E1,4.150785169E1
1.634083050E1,1.737453821E1,-9.270799593E0,-2.809244006E1,3.430754278E1
1.635083350E1,2.023364423E1,-1.107362072E1,-8.060369235E0,2.443348086E1
1.636083750E1,1.423327597E1,-1.388465562E1,-6.474300295E0,2.091139332E1
1.637084050E1,5.524000282E0,-1.449143639E1,-6.381729516E0,1.677029455E1
1.638084350E1,2.384908234E0,-9.900493848E0,-4.234011831E0,1.102879966E1
1.639084650E1,1.494507975E0,-2.948634494E0,-4.772842401E-1,3.340029897E0
1.640085050E1,6.704464245E-1,1.652078158E0,1.472624478E0,2.312462648E0
1.641085350E1,-6.097488177E-1,3.522801250E0,1.297937156E0,3.803493543E0
1.642085650E1,-3.006266698E0,2.431872193E0,9.036906874E-1,3.970931714E0
1.643085950E1,-5.939708664E0,-9.359059221E-1,8.850912791E-1,6.077782941E0
1.644086350E1,-7.816895853E0,-4.144381324E0,2.490061344E0,9.191309093E0
1.645086650E1,-7.985282215E0,-7.644340426E0,4.647259704E0,1.199156768E1
1.646086950E1,-5.945766964E0,-1.015840050E1,7.425870323E0,1.391721220E1
1.647087350E1,-1.904023863E0,-9.914404374E0,8.019398965E0,1.289307879E1
1.648087650E1,1.197553912E0,-7.992758465E0,6.033974551E0,1.008598890E1
1.649087950E1,1.347885534E0,-4.566834469E0,4.851745899E0,6.797956365E0
1.650088250E1,4.149999914E-1,-8.263220841E-1,6.138802264E0,6.208053351E0
1.651088650E1,-6.673973939E-1,1.158602393E0,7.222317052E0,7.345042027E0
1.652088950E1,-1.954374237E0,2.570335429E0,8.290336719E0,8.896959356E0
1.653089250E1,-2.821332423E0,3.964900455E0,8.615564700E0,9.894862675E0
1.654089650E1,-3.188679361E0,5.282131961E0,8.504830130E0,1.050717515E1
1.655089950E1,-3.335345071E0,5.993649813E0,8.217768095E0,1.070420839E1
1.656090250E1,-3.311818507E0,5.851863604E0,7.666754558E0,1.019762595E1
1.657090550E1,-3.097208735E0,4.704515932E0,6.530632371E0,8.624055384E0
1.658090950E1,-2.934277241E0,3.453385445E0,5.074717773E0,6.803573652E0
1.659091250E1,-2.403237793E0,2.082570639E0,4.321265445E0,5.365257440E0
1.660091550E1,-1.520968088E0,5.190462238E-1,3.517469759E0,3.867214296E0
1.661091850E1,-2.021639729E-1,-1.110853445E0,2.740464846E0,2.963952297E0
1.662092250E1,1.689568458E0,-2.804324627E0,2.020998874E0,3.847507587E0
1.663092550E1,3.143973597E0,-4.282783164E0,1.751667935E0,5.594206124E0
1.664092850E1,4.666927106E0,-5.434713884E0,3.823238207E0,8.119942980E0
