"Time (s)","Linear Acceleration x (m/s^2)","Linear Acceleration y (m/s^2)","Linear Acceleration z (m/s^2)","Absolute acceleration (m/s^2)"
1.476925000E-2,-6.216771376E-1,3.399734902E-1,-9.695736051E-1,1.200890259E0
2.477325001E-2,-5.481726667E-1,1.897702146E-1,-9.900447071E-1,1.147473106E0
3.477725000E-2,-5.231872219E-1,1.476837105E-1,6.174659729E-4,5.436319791E-1
4.478025000E-2,-3.062973288E-1,1.742926347E-1,1.152478604E0,1.205156798E0
5.478425001E-2,-1.311764359E-1,1.525977105E-1,1.992344009E0,2.002480454E0
6.478725001E-2,7.860295057E-2,1.199912971E-1,2.371345325E0,2.375679899E0
7.479124999E-2,3.082307106E-1,8.741119623E-2,2.336192449E0,2.358058957E0
8.479525000E-2,3.892175710E-1,1.040009165E-1,2.201004238E0,2.237571488E0
9.479825001E-2,5.190108481E-1,1.322061306E-1,2.110989277E0,2.177872000E0
1.048022500E-1,5.743705317E-1,1.434959346E-1,1.632403446E0,1.736442802E0
1.148062500E-1,4.548508126E-1,2.579581046E-1,9.661874825E-1,1.098612715E0
1.248092500E-1,4.244420752E-1,4.733157349E-1,2.035860157E-1,6.675523394E-1
1.348132500E-1,2.287378138E-1,5.506638730E-1,-5.549048585E-1,8.145373475E-1
1.448162500E-1,-6.600044668E-3,5.724511832E-1,-1.144486629E0,1.279684947E0
1.548202500E-1,-5.714249969E-2,5.259605563E-1,-1.469092467E0,1.561452033E0
1.648242500E-1,-1.767826715E-1,4.193634760E-1,-1.306933390E0,1.383904882E0
1.748272500E-1,-1.645500040E-1,3.037236768E-1,-9.463619131E-1,1.007435182E0
1.848312500E-1,-1.590524518E-1,2.036041421E-1,-5.455077982E-1,6.035984485E-1
1.948342500E-1,-5.217909068E-2,2.103190845E-1,-2.732503277E-1,3.487441991E-1
2.048382500E-1,1.616664496E-1,3.520082295E-1,-1.946736896E-1,4.335247167E-1
2.148422500E-1,3.143097684E-1,6.701619574E-1,-2.851236838E-1,7.932232944E-1
2.248452500E-1,3.042923185E-1,1.040514072E0,-5.873978359E-1,1.233004285E0
2.348492500E-1,2.335462716E-1,1.274417316E0,-1.148667973E0,1.731508438E0
2.448522500E-1,1.504047123E-1,1.393930311E0,-1.837578735E0,2.311354343E0
2.548562500E-1,1.492194816E-1,1.323894993E0,-2.496527780E0,2.829773023E0
2.648602500E-1,2.775211340E-1,8.987997839E-1,-3.055366645E0,3.196892924E0
2.748632500E-1,3.397173822E-1,1.087406695E-1,-3.482423303E0,3.500643440E0
2.848672500E-1,3.104149380E-1,-6.401011294E-1,-3.792364324E0,3.858511896E0
2.948712500E-1,1.231140026E-1,-1.026528994E0,-3.803057712E0,3.941087006E0
3.048742500E-1,-1.443850037E-1,-9.373694801E-1,-3.307635409E0,3.440924377E0
3.148782500E-1,-5.522186476E-1,-4.933181825E-1,-2.450904295E0,2.560320317E0
3.248812500E-1,-8.935236950E-1,7.093695849E-2,-1.385963772E0,1.650549067E0
3.348852500E-1,-8.495190118E-1,6.826729524E-1,-3.961020827E-1,1.159578273E0
3.448892500E-1,-8.184113860E-1,9.873777920E-1,-1.101363999E-1,1.287183797E0
3.548922500E-1,-6.453773645E-1,4.605492166E-1,-1.250959164E-1,8.026621405E-1
3.648962500E-1,-2.026491456E-1,-4.060970208E-1,-2.287430763E-3,4.538575755E-1
3.748992500E-1,3.639899053E-1,-1.404640363E0,1.182523352E-1,1.455845739E0
3.849032500E-1,6.198817500E-1,-2.492711594E0,3.028483486E-1,2.586422548E0
3.949072500E-1,4.497904859E-1,-3.382846389E0,7.184848094E-1,3.487431949E0
4.049102500E-1,9.640289828E-2,-3.957490278E0,1.092034766E0,4.106526848E0
4.149142500E-1,2.938117692E-1,-4.336029080E0,1.333873851E0,4.546063460E0
4.249182500E-1,7.094056915E-1,-4.463386699E0,1.609038557E0,4.797299484E0
4.349212500E-1,9.071854220E-1,-4.389496019E0,2.056576257E0,4.931548093E0
4.449252500E-1,9.217632616E-1,-4.124672407E0,2.518088803E0,4.919689136E0
4.549282500E-1,7.331310613E-1,-3.530104715E0,2.590131177E0,4.439358058E0
4.649322500E-1,6.284761338E-1,-2.447747091E0,2.321466236E0,3.431567216E0
4.749362500E-1,7.963723531E-1,-1.280410420E0,1.724581878E0,2.290816977E0
4.849392500E-1,8.790066665E-1,-9.059502708E-1,3.345121908E-1,1.305870215E0
4.949432500E-1,1.954707528E0,2.490055789E-1,3.262535834E-1,1.997329892E0
5.049462500E-1,2.962707865E0,3.270075819E0,3.455628437E-1,4.426109740E0
5.149502500E-1,2.198958590E0,6.325845922E0,9.008220434E-1,6.757457056E0
5.249542500E-1,9.570216796E-1,7.369087427E0,2.727208039E0,7.915617708E0
5.349572500E-1,4.337148821E-1,5.387103515E0,4.333151080E0,6.927134412E0
5.449612500E-1,-1.622716364E-1,1.884041149E0,2.995300537E0,3.542282943E0
5.549652500E-1,-3.756800973E-1,-7.900791411E-1,7.997388875E-1,1.185302861E0
5.649682500E-1,-6.312516609E-1,-1.300101357E0,-1.525374842E-1,1.453275570E0
5.749722500E-1,-7.970728496E-1,-1.234076060E0,-5.510997829E0,5.703452105E0
5.849752500E-1,1.102053970E-2,-1.594390844E0,-9.955547723E0,1.008241707E1
5.949792500E-1,1.213686234E0,-1.037052082E0,-5.458780439E0,5.687424301E0
6.049832500E-1,1.083956180E0,4.041244626E-2,7.092861452E0,7.175324225E0
6.149862500E-1,-2.277996646E-1,-4.842555830E-1,4.915013942E0,4.944062925E0
6.249902500E-1,-7.389374196E-1,-6.172423169E-1,4.303071249E0,4.409471483E0
6.349942500E-1,-1.050781929E0,3.104652241E-2,-4.484177059E-1,1.142884503E0
6.449972500E-1,-9.013395951E-1,9.171477619E-1,-3.503251669E0,3.731801889E0
6.550012500E-1,-2.959444680E-1,8.959333326E-1,-5.510099697E0,5.590302168E0
6.650042500E-1,1.582202469E-1,9.625130922E-1,-7.589862503E0,7.652285796E0
6.750082500E-1,-5.314913279E-1,1.693474690E0,-4.905714530E0,5.216931532E0
6.850122500E-1,1.165009187E0,1.434396552E0,-1.961892294E0,2.695136592E0
6.950152500E-1,4.584635732E0,-6.989788634E-1,3.913878236E0,6.068434649E0
7.050192500E-1,4.660717071E0,-2.013965258E0,-3.313707157E0,6.062919660E0
7.150232500E-1,3.808744129E0,-1.772989368E0,-9.032446033E0,9.961681810E0
7.250262500E-1,2.570462898E0,-1.974135194E0,-7.041149261E0,7.751275520E0
7.350302500E-1,6.268437374E-1,-3.454956007E0,-8.140165603E0,8.865210100E0
7.450332500E-1,-8.045097770E-1,-4.572063634E0,-1.028845778E1,1.128730992E1
7.550372500E-1,-1.457141636E0,-5.534196657E0,-1.153673892E1,1.287815745E1
7.650406250E-1,-2.199295389E0,-6.468737254E0,-1.168450273E1,1.353547435E1
7.750436250E-1,-3.198231665E0,-7.447370535E0,-1.187931559E1,1.438089540E1
7.850476250E-1,-3.819333436E0,-8.629045456E0,-1.205566527E1,1.530969623E1
7.950516250E-1,-3.720961635E0,-9.133701682E0,-1.170809391E1,1.530847886E1
8.050546250E-1,-2.856559559E0,-9.032636068E0,-1.102367381E1,1.453512405E1
8.150586250E-1,-1.807678413E0,-8.803268509E0,-1.027356726E1,1.364959420E1
8.250616250E-1,-8.873839724E-1,-9.030113579E0,-9.910783778E0,1.343703973E1
8.350656250E-1,7.599509239E-2,-9.251391515E0,-9.193249726E0,1.304261710E1
8.450696250E-1,1.194127151E0,-8.997700709E0,-7.805190897E0,1.197103014E1
8.550726250E-1,2.373720464E0,-8.473634650E0,-6.483951709E0,1.093062957E1
8.650766250E-1,3.504145124E0,-8.278030084E0,-4.915755368E0,1.024546075E1
8.750806250E-1,4.169133173E0,-8.625387438E0,-3.147252715E0,1.008385737E1
8.850836250E-1,4.880068642E0,-8.456605219E0,-1.614914424E0,9.896322063E0
8.950876250E-1,5.887163830E0,-7.266818456E0,-7.230795515E-1,9.380202155E0
9.050906250E-1,6.732608063E0,-5.423182590E0,4.064153286E-1,8.654715140E0
9.150946250E-1,7.744093925E0,-3.694300670E0,1.774119927E0,8.761640810E0
9.250986250E-1,8.995969933E0,-2.653529028E0,3.461266322E0,9.997452470E0
9.351016250E-1,9.228893183E0,-2.863175683E0,6.246945348E0,1.150628396E1
9.451056250E-1,9.673142994E0,-3.689366789E0,6.192520634E0,1.206351667E1
9.551096250E-1,8.605265999E0,-4.765033737E0,8.398949919E0,1.293439249E1
9.651126250E-1,7.948735948E0,-4.925690957E0,8.995916723E0,1.297579871E1
9.751166250E-1,8.583847649E0,-4.382079119E0,8.170948269E0,1.263524647E1
9.851196250E-1,9.788378751E0,-3.905735988E0,7.379501903E0,1.286562010E1
9.951236250E-1,1.243537059E1,-2.373562589E0,5.867249383E0,1.395338154E1
1.005127625E0,1.494443889E1,-6.374435699E-1,4.106016573E0,1.551134940E1
1.015130625E0,1.633264624E1,5.111448812E-1,2.848027886E0,1.658697879E1
1.025134625E0,1.661465862E1,1.572848970E0,2.223290316E0,1.683638188E1
1.035138625E0,1.632756034E1,2.850960850E0,2.902091242E0,1.682674472E1
1.045141625E0,1.575401280E1,3.559808278E0,3.508435811E0,1.652786363E1
1.055145625E0,1.426802948E1,3.402319956E0,2.968451293E0,1.496543181E1
1.065148625E0,1.262024435E1,3.537201188E0,2.970703640E0,1.343902674E1
1.075152625E0,1.173917069E1,4.318982107E0,3.569901742E0,1.300791810E1
1.085156625E0,1.110898936E1,5.005306061E0,3.103764049E0,1.257362655E1
1.095159625E0,1.008136460E1,5.520458039E0,2.898626767E0,1.185375073E1
1.105163625E0,9.232910805E0,5.842651316E0,2.952264445E0,1.131808649E1
1.115167625E0,9.039145188E0,6.198857846E0,1.973358684E0,1.113670188E1
1.125170625E0,8.905466144E0,6.983962322E0,1.530509866E0,1.142039918E1
1.135174625E0,8.912339546E0,7.125658484E0,1.875459922E0,1.156382960E1
1.145178625E0,8.891049834E0,6.602151420E0,2.337416271E0,1.131824568E1
1.155181625E0,8.453572268E0,5.690754687E0,2.246447629E0,1.043523358E1
1.165185625E0,7.884360443E0,4.918957888E0,1.583803729E0,9.426967728E0
1.175188625E0,7.029709184E0,4.480769886E0,6.869045824E-1,8.364565015E0
1.185192625E0,6.136908351E0,4.067029093E0,-1.454325324E-1,7.363662157E0
1.195196625E0,5.670047942E0,3.275241249E0,-1.224654880E0,6.661563516E0
1.205199625E0,5.436377417E0,2.305604494E0,-3.128580217E0,6.682666060E0
1.215203625E0,5.034029338E0,1.845087730E0,-4.889057567E0,7.255941290E0
1.225207625E0,5.031548365E0,1.668916969E0,-5.845500664E0,7.891238231E0
1.235210625E0,4.727426493E0,1.099406936E0,-7.681386631E0,9.086306038E0
1.245214625E0,4.574714177E0,1.027720072E0,-7.894477295E0,9.181883800E0
1.255218625E0,4.826265487E0,1.138098546E0,-5.311121287E0,7.266093598E0
1.265221625E0,5.438447331E0,7.116722184E-1,-2.534279158E0,6.041999468E0
1.275225625E0,5.810388719E0,3.080605567E-1,-1.025994997E0,5.908314828E0
1.285228625E0,4.178572333E0,-3.545640475E-1,1.656046955E-1,4.196856838E0
1.295232625E0,1.923427556E0,-1.236024790E0,-1.110830641E-1,2.289032610E0
1.305236625E0,3.612275344E-1,-1.468591361E0,3.656351656E-1,1.555935407E0
1.315239625E0,-1.673037502E0,-2.074607901E0,6.213192880E-2,2.665879368E0
1.325243625E0,-3.289474542E0,-2.274831768E0,-6.225647449E-2,3.999922274E0
1.335247625E0,-5.612721840E0,-2.728257321E0,5.963890994E-1,6.269107944E0
1.345250625E0,-7.154580567E0,-3.094598538E0,2.216444396E0,8.104146405E0
1.355254625E0,-5.986986911E0,-2.315853494E0,3.182333670E0,7.164805459E0
1.365258625E0,-2.044855514E0,5.910707644E-1,4.207337126E0,4.715133551E0
1.375261625E0,-4.327010334E0,-2.410111195E-1,2.887311235E0,5.207463006E0
1.385265625E0,-7.833723555E0,-2.908453013E0,1.494526686E0,8.488812266E0
1.395268625E0,-7.805340586E0,-3.214611178E0,2.763930307E0,8.882363279E0
1.405272625E0,-8.265463248E0,-2.847816509E0,1.957286443E0,8.958733827E0
1.415276625E0,-8.267446039E0,-2.450503761E0,1.913974947E-1,8.625095112E0
1.425279625E0,-7.387881548E0,-2.291394591E0,-5.681347686E-1,7.755904851E0
1.435283625E0,-4.914572477E0,-1.479138861E0,-4.390908122E-1,5.151084851E0
1.445287625E0,-2.892606474E0,-2.894921386E-1,-5.909932888E-1,2.966521697E0
1.455290625E0,-2.257680715E0,5.646597683E-1,-1.628539022E0,2.840440496E0
1.465294625E0,-1.499531318E0,1.497629803E0,-2.123526877E0,3.000142596E0
1.475298625E0,-1.304764658E0,1.978976981E0,-1.372890713E0,2.739268080E0
1.485301625E0,-1.195806472E0,2.350236291E0,-6.874103665E-1,2.725086559E0
1.495305625E0,-1.557321689E0,2.479793633E0,4.618247867E-1,2.964440831E0
1.505309625E0,-2.147787559E0,1.229431470E0,1.232507836E0,2.764700473E0
1.515312625E0,-2.779840581E0,-2.009395659E-3,2.643980525E0,3.836424209E0
1.525316625E0,-3.066267609E0,-4.783022404E-1,4.130122304E0,5.166108819E0
1.535319625E0,-4.167145704E0,-6.083984032E-1,4.839816409E0,6.415533868E0
1.545323625E0,-5.858003765E0,-2.047357537E0,2.633272519E0,6.741068547E0
1.555327625E0,-4.590387053E0,-1.805384551E0,-7.958979978E-1,4.996450770E0
1.565330625E0,-4.438974574E0,-1.503963800E0,-2.626320180E0,5.372518968E0
1.575334625E0,-4.386002308E0,-2.384079391E0,-2.943322883E0,5.795170436E0
1.585338625E0,-2.951338246E0,-3.171475391E0,-1.281712887E0,4.517902337E0
1.595341625E0,-3.787995869E-1,-2.275458589E0,1.579015298E0,2.795440972E0
1.605345625E0,2.635489783E0,-1.439359376E0,4.728609677E0,5.601545437E0
1.615349625E0,5.040232649E0,-2.523013328E0,2.786737956E0,6.287722151E0
1.625352625E0,6.606588871E0,-2.493268542E0,3.549588515E0,7.903352653E0
1.635356625E0,5.155125759E0,-7.309493190E-1,-1.483029306E0,5.413777279E0
1.645360625E0,4.213076168E0,3.194567800E-2,-6.140941760E0,7.447294611E0
1.655363625E0,3.683178096E0,-3.146801895E-1,-7.463355653E0,8.328655481E0
1.665367625E0,2.636520647E0,1.128074080E-1,-5.386773148E0,5.998440762E0
1.675370625E0,1.628770571E0,-5.546464115E-1,-3.403326262E0,3.813548985E0
1.685374625E0,1.426491993E0,8.422820592E-1,-2.230953092E0,2.778753349E0
1.695378625E0,2.583284088E0,2.352841811E0,-2.659123644E0,4.390917879E0
1.705381625E0,3.419836460E0,1.797580857E0,-8.931650560E0,9.731441830E0
1.715385625E0,2.493864958E0,2.292020828E-1,-1.160322994E1,1.187041874E1
1.725389625E0,-4.348790628E-1,1.198303233E0,-2.439724857E0,2.752691013E0
1.735392625E0,-1.728976060E0,1.552623451E0,5.297803668E0,5.785042913E0
1.745396625E0,-9.846591291E-1,1.528724127E0,8.372508225E0,8.567697767E0
1.755400625E0,2.542469645E0,3.519450796E-1,4.240763319E0,4.957024386E0
1.765404125E0,4.537344329E0,3.496360141E-1,-6.295007122E-1,4.594127779E0
1.775408125E0,4.562713936E0,-2.810165995E-1,-3.482056097E0,5.746480963E0
1.785412125E0,3.203082223E0,-9.814551473E-1,-3.347500556E0,4.735900115E0
1.795415125E0,1.311890367E0,-7.722756851E-1,-2.013269439E0,2.524028507E0
1.805419125E0,2.618019180E-1,4.297013533E-1,-8.642541414E-1,1.000059357E0
1.815423125E0,1.002828182E-1,2.290751397E0,6.555512273E-1,2.384815720E0
1.825426125E0,5.084237333E-1,3.884777228E0,9.163610190E-1,4.023643414E0
1.835430125E0,3.822644276E-1,4.460345562E0,1.357763820E0,4.678069176E0
1.845434125E0,-1.966477096E-2,3.809671497E0,2.117729947E0,4.358757134E0
1.855437125E0,1.171198757E-1,2.919752172E0,2.318174254E0,3.729960011E0
1.865441125E0,5.713011090E-1,1.791514370E0,2.072180137E0,2.798184986E0
1.875444125E0,8.368335506E-1,7.653484887E-1,1.301297697E0,1.726100923E0
1.885448125E0,1.364282881E0,-8.725682974E-2,7.664587288E-1,1.567271679E0
1.895452125E0,2.289412677E0,-6.206521207E-1,8.825989035E-1,2.530928740E0
1.905455125E0,3.565949316E0,-1.458099702E0,9.648981714E-1,3.971533425E0
1.915459125E0,4.924905092E0,-2.221251976E0,1.780586509E0,5.688509367E0
1.925463125E0,6.475853316E0,-2.569957114E0,1.434664939E0,7.113340932E0
1.935466125E0,7.108071814E0,-3.898666704E0,1.195532822E0,8.194729142E0
1.945470125E0,7.817139682E0,-7.487086578E0,6.168240656E0,1.245838397E1
1.955474125E0,9.899920821E0,-7.628564638E0,-5.253904527E-1,1.250917527E1
1.965477125E0,1.100685839E1,-8.437825717E0,-4.184110231E0,1.448635954E1
1.975481125E0,1.083289203E1,-1.083780486E1,-4.548563674E0,1.598433593E1
1.985485125E0,8.793164520E0,-1.185888541E1,-8.374602697E0,1.697312216E1
1.995488125E0,8.305374588E0,-8.328375780E0,-1.034172240E1,1.566181064E1
2.005492125E0,6.423676856E0,-8.985369515E0,-1.120259978E1,1.573209241E1
2.015496125E0,1.584681542E0,-1.136133765E1,-1.361879441E1,1.780625649E1
2.025499125E0,-9.247211487E-1,-9.077295347E0,-1.197169107E1,1.505236815E1
2.035503125E0,-1.763504161E0,-7.624979126E0,-9.367313150E0,1.220642492E1
2.045507125E0,-9.446576690E-1,-6.303991368E0,-6.405459271E0,9.036735791E0
2.055510125E0,4.314039163E-3,-4.447428478E0,-3.321886827E0,5.551087350E0
2.065514125E0,-2.825433806E-1,-3.740299546E0,-2.218193883E0,4.357758089E0
2.075518125E0,-7.513772247E-1,-2.884368916E0,-1.397354733E0,3.291922239E0
2.085521125E0,-7.421711491E-1,-1.343328799E0,1.794225140E0,2.361057841E0
2.095525125E0,-9.070086899E-1,-4.371588922E-1,3.953659183E0,4.079852153E0
2.105529125E0,-1.239440734E0,-2.323420376E-1,4.984561894E0,5.141600279E0
2.115532125E0,-1.826768549E0,-7.623038435E-1,5.416920222E0,5.767253694E0
2.125536125E0,-3.179145768E0,-1.248029124E0,5.822697108E0,6.750433032E0
2.135539125E0,-4.400989599E0,-1.627211704E0,5.773167683E0,7.439488724E0
2.145543125E0,-5.040077698E0,-2.125346530E0,5.610943701E0,7.835953694E0
2.155547125E0,-5.304183565E0,-2.281371878E0,6.497959299E0,8.692669095E0
2.165550125E0,-5.046275747E0,-1.582397473E0,6.905609633E0,8.698064444E0
2.175554125E0,-4.631464328E0,-9.371893859E-1,5.660828637E0,7.373856971E0
2.185558125E0,-4.281383633E0,-6.093208015E-2,4.385204748E0,6.128946012E0
2.195561125E0,-3.912762295E0,9.351615715E-1,3.737133279E0,5.490938088E0
2.205565125E0,-3.108486260E0,1.882816889E0,3.202281446E0,4.843789088E0
2.215569125E0,-2.062765243E0,2.683179089E0,1.948926240E0,3.905478711E0
2.225572125E0,-1.209788918E0,3.342170818E0,6.666293621E-1,3.616364157E0
2.235576125E0,-1.480115346E0,3.416907590E0,9.914550555E-1,3.853437692E0
2.245580125E0,-1.954982640E0,3.107352485E0,1.912732706E0,4.139582466E0
2.255583125E0,-2.263527638E0,2.717319227E0,3.043812254E0,4.666066244E0
2.265587125E0,-2.597990420E0,2.350407615E0,4.308761759E0,5.553323156E0
2.275591125E0,-3.466526770E0,2.001867369E0,5.438242679E0,6.752685706E0
2.285594125E0,-4.792431743E0,1.725959482E0,6.320427307E0,8.117520526E0
2.295598125E0,-5.945617275E0,1.592312597E0,6.884432187E0,9.234783740E0
2.305602125E0,-6.738566376E0,1.727021921E0,6.963891170E0,9.843102242E0
2.315605125E0,-7.208753850E0,2.103715340E0,6.400764542E0,9.867194993E0
2.325609125E0,-7.419978669E0,2.804650902E0,5.214716488E0,9.492914103E0
2.335613125E0,-7.561502337E0,3.544188026E0,3.775359744E0,9.164656434E0
2.345616125E0,-7.701783473E0,4.078764455E0,2.615796069E0,9.099240475E0
2.355620125E0,-7.751149760E0,4.307736157E0,2.028618965E0,9.096824078E0
2.365624125E0,-7.761716849E0,4.131377116E0,1.925478613E0,9.001110665E0
2.375627125E0,-7.687879379E0,3.557432554E0,1.950953762E0,8.692815212E0
2.385631125E0,-7.527539955E0,2.732026144E0,1.478546684E0,8.143336228E0
2.395635125E0,-7.123817196E0,1.820820615E0,-5.043071473E-1,7.370107520E0
2.405638125E0,-6.134455444E0,7.907587337E-1,-4.502970010E0,7.650724271E0
2.415642125E0,-2.774354431E0,-2.817627043E-1,-1.188416059E1,1.220695317E1
2.425646125E0,4.612806155E0,-1.014879001E0,-1.739317680E1,1.802305632E1
2.435649125E0,1.109581442E1,-1.770626947E0,-8.574811946E0,1.413434177E1
2.445653125E0,1.255450293E1,-2.578938437E0,-4.773314564E0,1.367665892E1
2.455657125E0,1.417017048E1,-3.125843135E0,-9.251096231E0,1.720893396E1
2.465660125E0,1.576946699E1,-4.706781144E0,-1.098522135E1,1.978648443E1
2.475664125E0,1.465609398E1,-6.586332362E0,-9.061189191E0,1.844684294E1
2.485668125E0,1.109209676E1,-6.489310682E0,-6.391258138E0,1.435248913E1
2.495671125E0,6.258511140E0,-5.251186742E0,-4.303196379E0,9.233711224E0
2.505675125E0,2.132457329E0,-3.047088157E0,-2.577864304E0,4.525207715E0
2.515679125E0,-5.924457371E-2,1.703445947E-1,-3.688015790E-1,4.105384332E-1
2.525682125E0,-3.138118780E-1,1.114464101E0,1.804657742E0,2.144130987E0
2.535686125E0,-1.320171486E0,-7.959504765E-1,2.703946645E0,3.112509819E0
2.545690125E0,-2.740575943E0,-4.287571449E0,1.995682769E0,5.465965161E0
2.555693125E0,-2.987479886E0,-7.858599365E0,6.236048184E-2,8.407526918E0
2.565697125E0,-1.656466493E0,-1.014145293E1,-2.674493051E-1,1.027932283E1
2.575701125E0,1.160372930E0,-1.118241168E1,1.999509187E0,1.141888056E1
2.585704125E0,3.910405574E0,-1.161243463E1,5.244620318E0,1.332838895E1
2.595708125E0,3.125626788E0,-9.652157337E0,7.005400554E0,1.232920602E1
2.605712125E0,-6.310402840E-1,-5.254510299E0,8.427863231E0,9.951731958E0
2.615715125E0,-3.243766272E0,-1.190173264E0,8.274933983E0,8.967333185E0
2.625719125E0,-4.917297279E0,1.987703074E0,7.354703861E0,9.067659286E0
2.635723125E0,-7.242725004E0,4.541392064E0,7.858078963E0,1.161166277E1
2.645726125E0,-8.469480203E0,5.332727918E0,6.292663558E0,1.182233888E1
2.655730125E0,-7.916899028E0,5.142299892E0,3.205040163E0,9.969594819E0
2.665734125E0,-7.447691547E0,5.088261094E0,2.167245923E0,9.276608499E0
2.675737125E0,-7.131569434E0,4.999626076E0,1.864511011E0,8.906848197E0
2.685741125E0,-7.363457143E0,4.377740777E0,1.429410338E0,8.684948436E0
2.695745125E0,-7.379507750E0,2.883915172E0,1.339820470E0,8.035497511E0
2.705748125E0,-6.716258079E0,6.084138983E-1,1.417981955E0,6.891223613E0
2.715752125E0,-5.521432185E0,-1.642725536E0,1.231982026E0,5.890886204E0
2.725756125E0,-4.545904360E0,-3.801043346E0,1.428142077E0,6.095306946E0
2.735759125E0,-3.772610383E0,-5.677662771E0,2.375067662E0,7.218683401E0
2.745763125E0,-3.501020957E0,-6.378525242E0,3.812531371E0,8.214507134E0
2.755767125E0,-3.320939286E0,-5.739528067E0,4.536473971E0,8.034327368E0
2.765770000E0,-3.001376964E0,-4.639163942E0,4.466800303E0,7.105097516E0
2.775774000E0,-2.784485317E0,-3.360951490E0,4.209623387E0,6.063850465E0
2.785778000E0,-2.806489851E0,-2.120705595E0,4.258564582E0,5.523508831E0
2.795781000E0,-2.785867014E0,-1.096824220E0,4.303743094E0,5.242736213E0
2.805785000E0,-2.223815981E0,3.659012139E-2,4.169717309E0,4.725805624E0
2.815789000E0,-1.377901339E0,9.777445042E-1,3.988733706E0,4.331811745E0
2.825792000E0,-1.624336043E-1,1.644167460E0,3.490804701E0,3.862044637E0
2.835796000E0,9.783336112E-1,1.949254122E0,2.870785834E0,3.605293274E0
2.845799000E0,2.055856465E0,1.899370941E0,2.073487428E0,3.483318230E0
2.855803000E0,3.223414453E0,1.687580697E0,1.085338389E0,3.796878819E0
2.865807000E0,4.372242056E0,1.922586726E0,5.656011701E-2,4.776613796E0
2.875811000E0,5.122835096E0,1.710159720E0,-6.353666389E-1,5.437993789E0
2.885814000E0,5.098222411E0,1.399911135E0,-1.150294961E0,5.410619321E0
2.895818000E0,4.662704832E0,1.273890774E0,-1.519754498E0,5.066879492E0
2.905822000E0,4.028503543E0,1.346566987E0,-1.778848424E0,4.605039106E0
2.915825000E0,3.349472821E0,1.685700232E0,-1.902072062E0,4.204572699E0
2.925829000E0,2.899814629E0,2.043146957E0,-2.090010344E0,4.117222074E0
2.935833000E0,2.921980838E0,2.254592800E0,-2.691126917E0,4.567638865E0
2.945836000E0,3.333143887E0,2.419126432E0,-3.494909447E0,5.401519500E0
2.955840000E0,3.829813986E0,2.491693887E0,-4.316352322E0,6.285452327E0
2.965844000E0,4.534961296E0,2.414933394E0,-4.931386730E0,7.121541430E0
2.975847000E0,5.208117321E0,2.246040663E0,-5.383171263E0,7.819700603E0
2.985851000E0,5.378066059E0,1.936078591E0,-5.675521520E0,8.055031929E0
2.995855000E0,5.171610230E0,1.405253152E0,-5.645646926E0,7.784190260E0
3.005858000E0,4.983380756E0,9.824368948E-1,-5.350932055E0,7.377786922E0
3.015862000E0,4.652067870E0,9.974589765E-1,-5.222177535E0,7.064545143E0
3.025866000E0,4.072511442E0,1.576519268E0,-5.846965392E0,7.297791908E0
3.035869000E0,3.868683352E0,2.348648772E0,-5.374060131E0,7.025908071E0
3.045873000E0,3.950486191E0,2.717228596E0,-4.059651076E0,6.282550378E0
3.055877000E0,3.988516189E0,2.548087358E0,-3.094826580E0,5.654994442E0
3.065880000E0,4.005453234E0,2.285148010E0,-2.449924009E0,5.221846866E0
3.075884000E0,4.009180542E0,2.148099216E0,-1.765845971E0,4.879146529E0
3.085888000E0,3.905467601E0,2.026611616E0,-1.135262354E0,4.544078833E0
3.095891000E0,4.052702245E0,1.978376765E0,-4.856381571E-1,4.535880789E0
3.105895000E0,4.441223997E0,1.919449110E0,4.012812540E-1,4.854871999E0
3.115899000E0,4.928543229E0,1.709707730E0,1.431551296E0,5.409526597E0
3.125902000E0,5.590048091E0,1.099381208E0,2.339119857E0,6.158632836E0
3.135906000E0,6.591513580E0,8.513896823E-2,3.173441225E0,7.316148517E0
3.145910000E0,7.723598850E0,-1.157616552E0,3.547015155E0,8.577608745E0
3.155913000E0,8.669915739E0,-2.306372234E0,3.497079933E0,9.628933475E0
3.165917000E0,9.383149749E0,-2.968824930E0,3.044207234E0,1.030168037E1
3.175921000E0,9.979835887E0,-3.303886174E0,2.039716688E0,1.070855884E1
3.185924000E0,1.032687398E1,-3.599554142E0,7.847980821E-1,1.096435243E1
3.195928000E0,9.862330241E0,-3.535433575E0,-2.049777992E-1,1.047887705E1
3.205932000E0,8.294749027E0,-2.842871227E0,-6.120257235E-1,8.789730014E0
3.215935000E0,6.139305124E0,-2.773263048E0,-4.496885982E0,8.099632021E0
3.225939000E0,-6.514564222E-1,-6.256414329E0,-3.135226747E1,3.197705101E1
3.235943000E0,-4.769763842E-1,-6.007403049E0,-2.201009851E1,2.282018480E1
3.245946000E0,2.990027811E0,-4.332686811E0,-2.329340681E0,5.756584866E0
3.255950000E0,2.004841555E0,-5.025783010E0,1.473755622E0,5.608015706E0
3.265954000E0,5.375275183E-1,-5.983796670E0,2.577233389E0,6.537345819E0
3.275957000E0,-8.641892374E-3,-7.037360265E0,3.090969172E0,7.686260769E0
3.285961000E0,-1.126340380E-1,-8.615020909E0,4.052953091E0,9.521433739E0
3.295965000E0,1.086307418E-1,-1.056952057E1,4.751780146E0,1.158904570E1
3.305968000E0,-1.977411389E-2,-1.272915459E1,4.385370224E0,1.346340371E1
3.315972000E0,-5.459054089E-1,-1.476599825E1,3.088813303E0,1.509547894E1
3.325976000E0,-1.433994555E0,-1.531524008E1,8.709679145E-1,1.540686548E1
3.335979000E0,-2.479418242E0,-1.219668374E1,-1.704853957E0,1.256236984E1
3.345983000E0,-3.541530467E0,-8.419530948E0,-1.744169465E0,9.299089555E0
3.355987000E0,-4.581569452E0,-6.102881064E0,7.601684403E-1,7.669015060E0
3.365990000E0,-5.043376697E0,-4.086183402E0,2.538187437E0,6.969572352E0
3.375994000E0,-4.998405762E0,-1.975948416E0,3.364165120E0,6.340823232E0
3.385998000E0,-4.811320589E0,-1.391590548E-1,3.524689901E0,5.965870427E0
3.396001000E0,-4.556448060E0,1.529580744E0,2.702260308E0,5.513895805E0
3.406005000E0,-4.113547202E0,3.067231815E0,1.447063082E0,5.331338777E0
3.416009000E0,-3.720825979E0,4.152567426E0,7.209195900E-1,5.622107012E0
3.426012000E0,-3.656695472E0,4.792597804E0,6.257129589E-1,6.060687436E0
3.436016000E0,-3.733403925E0,5.125880910E0,1.075041222E0,6.431848381E0
3.446020000E0,-3.662338035E0,5.386117675E0,2.132392863E0,6.853472318E0
3.456023000E0,-3.572263432E0,5.408804287E0,3.460814917E0,7.348024886E0
3.466027000E0,-3.728577633E0,5.234855468E0,4.551460969E0,7.875392047E0
3.476031000E0,-4.046851521E0,5.091560678E0,5.448959455E0,8.484819180E0
3.486034000E0,-4.740452335E0,4.726610221E0,6.090094957E0,9.049971774E0
3.496038000E0,-5.705003766E0,3.936277165E0,6.330842367E0,9.387273884E0
3.506042000E0,-6.447170384E0,3.187607274E0,6.430223399E0,9.647518803E0
3.516046000E0,-6.959070725E0,2.581562667E0,6.434628106E0,9.823317669E0
3.526049000E0,-7.571850155E0,2.142952496E0,6.160690731E0,9.993961700E0
3.536053000E0,-8.151080015E0,1.822550806E0,5.611592742E0,1.006239385E1
3.546056000E0,-8.510469185E0,1.597213148E0,5.194750586E0,1.009775268E1
3.556060000E0,-8.748046820E0,1.390845612E0,4.986291500E0,1.016493372E1
3.566064000E0,-8.938483032E0,1.129240599E0,4.626891513E0,1.012816806E1
3.576068000E0,-9.220006000E0,7.748057753E-1,3.942246587E0,1.005734273E1
3.586071000E0,-9.514500432E0,5.595867240E-1,3.062023115E0,1.001073630E1
3.596075000E0,-9.325276932E0,6.747622544E-1,2.125232509E0,9.588154524E0
3.606079000E0,-8.727058824E0,8.395134026E-1,1.205504225E0,8.849834965E0
3.616082000E0,-8.053271300E0,7.515461361E-1,-1.178855686E-1,8.089122155E0
3.626086000E0,-7.222098951E0,6.805106521E-2,-2.624381243E0,7.684446702E0
3.636090000E0,-6.510229681E0,-2.542614949E0,-7.836071212E0,1.050009492E1
3.646093000E0,-3.111032723E0,-6.128940935E0,-2.542683478E1,2.633944511E1
3.656097000E0,9.072282529E0,-5.550289949E0,-2.294797086E1,2.529271427E1
3.666101000E0,1.361896983E1,-1.992287875E0,-9.540297178E0,1.674702423E1
3.676104000E0,1.382451700E1,-9.544965595E-1,-1.057699097E1,1.743275859E1
3.686108000E0,1.562892448E1,-2.806065343E0,-5.153914801E0,1.669431403E1
3.696112000E0,1.554598524E1,-5.080980141E0,-4.847983508E-1,1.636242787E1
3.706115000E0,1.301633240E1,-5.527139652E0,8.277284856E-1,1.416542679E1
3.716119000E0,7.450899330E0,-4.103222188E0,-1.170888416E0,8.586228091E0
3.726123000E0,1.998470137E0,-4.770819265E-1,-4.475319697E0,4.924426509E0
3.736126000E0,-5.463152987E-1,2.324505034E0,-3.889466110E0,4.563959978E0
3.746130000E0,-1.505635226E0,1.084242182E0,-1.286761812E0,2.257935894E0
3.756134000E0,-2.654635321E0,-2.223269266E0,-3.797054668E-1,3.483416593E0
3.766136875E0,-4.053222647E0,-5.976567757E0,-4.312755699E-1,7.234222460E0
3.776140875E0,-5.176278062E0,-9.360350870E0,-1.575828127E0,1.081171852E1
3.786144875E0,-4.547716997E0,-1.105065052E1,-3.273816283E0,1.239017675E1
3.796147875E0,-1.119138365E0,-9.975728803E0,2.128877664E0,1.026156693E1
3.806151875E0,5.573437321E-1,-7.580843173E0,8.269422398E0,1.123223762E1
3.816155875E0,-1.367467859E0,-4.786254160E0,8.585161518E0,9.923869987E0
3.826159875E0,-2.711291333E0,-2.211456721E0,8.253022127E0,8.964040147E0
3.836162875E0,-3.483511469E0,-1.895293093E-1,8.054029684E0,8.777138923E0
3.846166875E0,-4.167305918E0,1.388256465E0,7.691454366E0,8.857322671E0
3.856170875E0,-4.640921030E0,1.928970131E0,6.415422342E0,8.149645244E0
3.866173875E0,-5.054275907E0,1.694771603E0,4.868392922E0,7.219363225E0
3.876177875E0,-5.341340867E0,1.170227242E0,3.568154594E0,6.529248139E0
3.886181875E0,-5.666926113E0,6.073608148E-1,3.087259698E0,6.481829308E0
3.896184875E0,-6.003670186E0,1.724852604E-1,3.154978641E0,6.784371533E0
3.906188875E0,-6.205604948E0,-2.164843887E-1,3.463933822E0,7.110220516E0
3.916192875E0,-6.214354137E0,-7.151203215E-1,4.399670759E0,7.647659590E0
3.926195875E0,-5.014075130E0,-1.096150621E0,5.451872538E0,7.487683872E0
3.936199875E0,-3.604940012E0,-1.633818473E0,5.792546525E0,7.015593384E0
3.946203875E0,-2.417176386E0,-2.139782721E0,5.598314885E0,6.462394395E0
3.956206875E0,-1.355939489E0,-2.475393603E0,5.157130185E0,5.878957147E0
3.966210875E0,-5.848139513E-1,-2.847258393E0,4.293597005E0,5.184965087E0
3.976214875E0,-3.069788218E-2,-2.856216327E0,3.250054368E0,4.326865778E0
3.986218875E0,1.442525643E-1,-2.030264956E0,2.612765749E0,3.311997804E0
3.996221875E0,3.967911771E-1,-1.039382343E0,2.112179185E0,2.387270367E0
4.006225875E0,5.096886322E-1,1.442075408E-1,2.007034553E0,2.075756733E0
4.016229875E0,5.293674365E-1,1.361762731E0,2.057698338E0,2.523638260E0
4.026232875E0,6.633514130E-1,2.349898907E0,1.931534866E0,3.113340153E0
4.036236875E0,1.156820454E0,3.084227917E0,1.750587808E0,3.730315412E0
4.046240875E0,1.925586640E0,3.454446130E0,1.156582033E0,4.120529574E0
4.056243875E0,2.518146690E0,3.436258950E0,1.637530285E-1,4.263303107E0
4.066247875E0,2.866997131E0,3.060324499E0,-8.018795532E-1,4.269457741E0
4.076251875E0,3.190788452E0,2.433083736E0,-1.485126702E0,4.278624631E0
4.086254875E0,3.731592457E0,1.956042155E0,-1.884693845E0,4.615512330E0
4.096258875E0,4.184069885E0,1.574264581E0,-2.071430085E0,4.927024698E0
4.106262875E0,4.559739750E0,1.406117955E0,-1.938130087E0,5.150217716E0
4.116266875E0,4.779546234E0,1.586351945E0,-1.482967325E0,5.249739687E0
4.126269875E0,4.534722730E0,1.862204284E0,-1.054857000E0,5.014403087E0
4.136273875E0,3.968375748E0,1.852519541E0,-1.397300061E0,4.596986207E0
4.146277875E0,3.226013248E0,1.851424357E0,-2.404999559E0,4.429329126E0
4.156280875E0,2.761487340E0,1.954286821E0,-3.286597711E0,4.716648580E0
4.166284875E0,2.526274905E0,2.024785531E0,-4.030250399E0,5.169597626E0
4.176288875E0,2.321704218E0,2.164067962E0,-4.499984714E0,5.506665329E0
4.186291875E0,2.134918130E0,2.326185524E0,-4.666259939E0,5.634092325E0
4.196295875E0,2.055131118E0,2.297586207E0,-4.331275001E0,5.316240159E0
4.206299875E0,2.330108713E0,1.878958896E0,-3.696499808E0,4.756469697E0
4.216302875E0,2.749338580E0,1.087483293E0,-2.976513433E0,4.195368251E0
4.226306875E0,2.809831827E0,2.639895076E-1,-2.612039817E0,3.845464519E0
4.236310875E0,2.530221190E0,-2.286378264E-2,-3.574581561E0,4.379517709E0
4.246314875E0,2.248491962E0,-9.682053566E-2,-4.872651449E0,5.367291911E0
4.256317875E0,2.245021347E0,-1.335106444E-1,-5.347301518E0,5.800998144E0
4.266321875E0,2.452170071E0,1.836780006E-1,-4.821413468E0,5.412291889E0
4.276325875E0,2.720867026E0,6.466266221E-1,-3.896015284E0,4.795850129E0
4.286328875E0,2.976939111E0,8.685600311E-1,-3.163219999E0,4.429731793E0
4.296332875E0,3.256419354E0,7.116634476E-1,-2.599755987E0,4.227228769E0
4.306336875E0,3.600500806E0,4.045694357E-1,-1.816531098E0,4.053031916E0
4.316339875E0,3.954666658E0,2.260375696E-1,-1.162344611E0,4.128138364E0
4.326343875E0,4.476119011E0,3.906782055E-1,-9.402156124E-1,4.590454908E0
4.336347875E0,4.749902020E0,6.898533332E-1,-8.472682723E-1,4.873944024E0
4.346351875E0,4.632321530E0,7.743496925E-1,-7.870121303E-1,4.762080249E0
4.356354875E0,4.399649125E0,6.114491880E-1,-1.030020366E0,4.559794347E0
4.366358875E0,4.255034325E0,1.298590583E-1,-1.436851213E0,4.492963598E0
4.376362875E0,4.603413481E0,-5.812313622E-1,-1.601627504E0,4.908610417E0
4.386365875E0,5.546748875E0,-1.636409959E0,-1.386100597E0,5.946892928E0
4.396369875E0,7.028604060E0,-2.863635274E0,-1.138224261E0,7.674453497E0
4.406373875E0,8.474867243E0,-3.584345534E0,-2.091883207E0,9.436465601E0
4.416376875E0,8.425043703E0,-3.144146674E0,-9.517257979E0,1.309370914E1
4.426380875E0,7.676663250E0,-2.545140361E0,-1.456952361E1,1.666373057E1
4.436384875E0,7.369487377E0,-3.071012625E0,-7.323436460E0,1.083389054E1
4.446387875E0,7.336281624E0,-2.972430323E0,-1.364159651E0,8.032266283E0
4.456391875E0,7.189455115E0,-2.314779945E0,6.920162183E-1,7.584547283E0
4.466395875E0,6.172034914E0,-1.972828926E0,1.281982736E0,6.605266739E0
4.476399875E0,4.855145762E0,-2.251985527E0,1.456889328E0,5.546747308E0
4.486402875E0,3.851772912E0,-2.834868727E0,1.635399560E0,5.054420539E0
4.496406875E0,3.203002993E0,-3.891163557E0,1.895251577E0,5.384455455E0
4.506410875E0,3.108886210E0,-5.116632369E0,2.235964741E0,6.390981035E0
4.516413875E0,3.299780259E0,-6.882351163E0,2.555415673E0,8.048941331E0
4.526417875E0,2.780149314E0,-9.319585252E0,3.149194576E0,1.022258900E1
4.536421875E0,1.569161131E0,-1.158349793E1,4.054911908E0,1.237263115E1
4.546424875E0,6.127145255E-1,-1.299232958E1,5.191168581E0,1.400443780E1
4.556428875E0,-4.694875628E-1,-1.283493072E1,6.543199207E0,1.441420553E1
4.566432875E0,-1.422091379E0,-1.062177129E1,8.067427994E0,1.341371550E1
4.576436875E0,-1.045218449E0,-6.733723127E0,7.257530154E0,9.955262563E0
4.586439875E0,-1.289381218E-1,-2.633405836E0,-8.789615699E-1,2.779212978E0
4.596443875E0,-3.083125716E-1,3.551622176E-1,-7.470981592E0,7.485770688E0
4.606447875E0,-1.982990803E0,3.513434011E-1,-3.652497464E0,4.170903071E0
4.616450875E0,-2.788392718E0,2.083859950E-1,-1.755262510E-1,2.801672383E0
4.626454875E0,-3.272094862E0,3.813863951E-1,2.670734460E0,4.240858749E0
4.636458875E0,-3.772746330E0,7.093280697E-1,4.674749511E0,6.048970506E0
4.646461875E0,-4.308682237E0,1.186778955E0,5.746755810E0,7.279999261E0
4.656465875E0,-4.814892653E0,1.663617638E0,6.213877004E0,8.035115576E0
4.666469875E0,-5.258788707E0,2.014769835E0,6.322410682E0,8.466819532E0
4.676472875E0,-5.623300622E0,2.245202757E0,6.450415589E0,8.847050727E0
4.686476875E0,-5.785239844E0,2.648209231E0,6.640466470E0,9.196619331E0
4.696480875E0,-5.974580873E0,3.110904669E0,6.737067150E0,9.526878725E0
4.706484875E0,-6.112937105E0,3.664550622E0,6.579407505E0,9.699769813E0
4.716487875E0,-6.227324431E0,4.260685952E0,6.165983630E0,9.744350593E0
4.726491875E0,-6.431429095E0,4.698821914E0,5.814178884E0,9.861383456E0
4.736495875E0,-6.761974534E0,4.857785488E0,5.749603404E0,1.011831600E1
4.746498875E0,-6.934170358E0,4.885496612E0,5.996758193E0,1.038806548E1
4.756502875E0,-6.996204638E0,4.743276540E0,6.395590925E0,1.059948749E1
4.766506875E0,-7.134475501E0,4.522422527E0,6.509146192E0,1.066405318E1
4.776510000E0,-7.378868065E0,4.369663433E0,6.185506314E0,1.057365314E1
4.786514000E0,-7.830537992E0,4.190971354E0,5.645148743E0,1.052374793E1
4.796518000E0,-8.236243542E0,3.946020965E0,5.461423380E0,1.064114348E1
4.806521000E0,-8.507368407E0,3.478355395E0,5.006603558E0,1.046615271E1
4.816525000E0,-9.223351192E0,2.539239936E0,3.377583311E0,1.014524597E1
4.826529000E0,-9.873575606E0,1.341057156E0,5.232975881E-1,9.977964217E0
4.836533000E0,-9.384998054E0,2.210469711E-1,-1.412544776E0,9.493278305E0
4.846536000E0,-8.918686114E0,-1.606465783E0,-5.493318772E0,1.059718101E1
4.856540000E0,-8.254554682E0,-6.170766653E0,-1.906029750E1,2.166820193E1
4.866544000E0,3.736862845E0,-1.050633088E1,-3.946238131E1,4.100764161E1
4.876547000E0,1.661843242E1,-4.040616635E0,-1.319568521E1,2.160150428E1
4.886551000E0,1.585063102E1,-7.998184097E-1,-1.230291245E1,2.008093294E1
4.896555000E0,1.343233957E1,-3.017356820E0,-5.655455046E0,1.488342569E1
4.906558000E0,1.191549816E1,-5.155349123E0,6.723491085E-1,1.300033747E1
4.916562000E0,1.249007129E1,-5.600729200E0,3.368004694E0,1.409657775E1
4.926566000E0,1.105030671E1,-4.312224480E0,6.025414227E0,1.330451709E1
4.936570000E0,6.270428935E0,-1.672444010E0,3.010847991E0,7.154058542E0
4.946573000E0,8.345783526E-1,1.783427086E0,-3.073379577E0,3.650040442E0
4.956577000E0,-2.318168991E0,4.452171155E0,-5.061632289E0,7.128524174E0
4.966581000E0,-3.604557604E0,4.395739676E0,-1.041008015E0,5.779192029E0
4.976584000E0,-4.826706952E0,1.369798560E0,1.694583761E0,5.295758889E0
4.986588000E0,-5.697160896E0,-3.621044998E0,2.201624043E0,7.100475870E0
4.996592000E0,-5.398679833E0,-8.602111427E0,2.138191109E0,1.037853198E1
5.006595000E0,-4.658463262E0,-1.304944869E1,-6.483591521E-1,1.387118454E1
5.016599000E0,-1.338986072E0,-1.504792643E1,-2.213769002E-1,1.510900331E1
5.026603000E0,3.075819036E0,-1.454534889E1,4.886422226E0,1.564943958E1
5.036606000E0,3.135508583E0,-1.117771987E1,5.818482435E0,1.298566800E1
5.046610000E0,1.440738734E0,-5.253461893E0,6.882219601E0,8.777216905E0
5.056614000E0,-7.706688702E-2,-1.010299462E0,6.542221552E0,6.620219569E0
5.066618000E0,-2.870875881E0,1.909483116E0,3.689403627E0,5.049728034E0
5.076621000E0,-5.008662947E0,3.486102371E0,2.617366923E0,6.640046978E0
5.086625000E0,-6.018921479E0,4.127237288E0,2.585685539E0,7.742562438E0
5.096629000E0,-6.521226540E0,4.278952653E0,2.525722343E0,8.198481856E0
5.106632000E0,-6.952454016E0,4.091056471E0,2.599458071E0,8.475290093E0
5.116636000E0,-7.400678179E0,3.207888342E0,3.028353678E0,8.615771070E0
5.126640000E0,-7.330809799E0,1.871856283E0,3.763177947E0,8.450214584E0
5.136643000E0,-6.393930316E0,3.154982150E-1,4.765173193E0,7.980523765E0
5.146647000E0,-4.649556198E0,-1.064612494E0,5.669662610E0,7.409240630E0
5.156651000E0,-2.956238798E0,-2.349555091E0,6.389643137E0,7.422081674E0
5.166654000E0,-1.536760540E0,-3.284874537E0,6.827083865E0,7.730530886E0
5.176658000E0,-6.249992332E-1,-3.596817060E0,6.964173006E0,7.863041565E0
5.186662000E0,-1.511037469E-2,-3.366587037E0,6.363521286E0,7.199204106E0
5.196665000E0,3.438458088E-1,-2.704337824E0,5.626186223E0,6.251851280E0
5.206669000E0,3.743045399E-1,-1.818677026E0,5.039114662E0,5.370322764E0
5.216673000E0,5.302702466E-1,-8.536069465E-1,4.350140165E0,4.464700529E0
5.226677000E0,8.699455288E-1,1.324803650E-1,3.762238299E0,3.863779664E0
5.236680000E0,1.280591683E0,1.178332652E0,3.375433874E0,3.797622511E0
5.246684000E0,1.597713085E0,2.177126548E0,2.831025937E0,3.912451274E0
5.256688000E0,1.954298808E0,3.033065949E0,1.947415758E0,4.100146463E0
5.266691000E0,2.415828895E0,3.631495727E0,1.061973500E0,4.489073198E0
5.276695000E0,2.700085729E0,3.736233392E0,3.154678094E-1,4.620543566E0
5.286699000E0,3.121369430E0,3.625548524E0,-5.660104752E-1,4.817459608E0
5.296702000E0,4.014238383E0,3.385063069E0,-1.296621240E0,5.408695630E0
5.306706000E0,5.102332419E0,2.852365351E0,-1.887987289E0,6.142823472E0
5.316710000E0,6.114502405E0,2.279514218E0,-2.071867896E0,6.846602172E0
5.326713000E0,7.585434991E0,1.945296727E0,-1.544596394E0,7.981778084E0
5.336717000E0,8.783538249E0,1.830439285E0,-2.231674054E0,9.245616325E0
5.346721000E0,7.863486468E0,1.716968218E0,-6.144288706E0,1.012594109E1
5.356725000E0,6.023501018E0,1.542803053E0,-8.998112937E0,1.093749707E1
5.366728000E0,4.769865584E0,1.688715057E0,-8.538268018E0,9.924988513E0
5.376732000E0,3.954167306E0,2.194864077E0,-6.057389726E0,7.559420460E0
5.386736000E0,2.825078149E0,2.387462590E0,-4.520191814E0,5.840648783E0
5.396739000E0,1.637841065E0,1.888226148E0,-2.623206537E0,3.623414671E0
5.406743000E0,1.002989273E0,1.351199736E0,-2.712736180E0,3.192282223E0
5.416747000E0,1.115043852E0,1.472965663E0,-4.120905046E0,4.516061230E0
5.426750000E0,1.484795457E0,1.690242350E0,-3.587982794E0,4.234992005E0
5.436754000E0,1.877257648E0,1.830959687E0,-2.472966424E0,3.604451774E0
5.446758000E0,2.159836624E0,1.734419818E0,-1.814737172E0,3.311552106E0
5.456761000E0,2.379025935E0,1.528893111E0,-1.160321182E0,3.056734170E0
5.466765000E0,2.497556305E0,1.196868911E0,-1.682664943E-1,2.774634444E0
5.476769000E0,2.537280826E0,8.207859403E-1,9.555470118E-1,2.832764311E0
5.486772000E0,2.582694981E0,7.187081730E-1,1.960486039E0,3.321198626E0
5.496776000E0,2.708206927E0,8.385357481E-1,2.279062521E0,3.637533908E0
5.506780000E0,2.970667387E0,8.413178533E-1,2.151146492E0,3.762992385E0
5.516784000E0,2.959766423E0,6.077976018E-1,1.749067093E0,3.491256350E0
5.526787000E0,2.766855669E0,3.703392506E-1,7.365784335E-1,2.887072781E0
5.536791000E0,2.254869227E0,1.064877373E-1,-6.884032238E-1,2.360015650E0
5.546795000E0,1.721418680E0,-8.805906773E-3,-2.053262640E0,2.679411743E0
5.556798000E0,1.450510747E0,1.243118048E-2,-2.894552135E0,3.237679419E0
5.566802000E0,1.611194426E0,1.873219854E-1,-2.732664368E0,3.177812385E0
5.576806000E0,2.461530732E0,-2.279595494E-2,-1.814960828E0,3.058387812E0
5.586809000E0,4.032173840E0,-9.714809668E-1,-1.326456658E0,4.354502086E0
5.596813000E0,6.290829871E0,-2.273286349E0,-8.572129244E-1,6.743677430E0
5.606817000E0,9.100812263E0,-3.409149504E0,-2.182268590E-1,9.720838809E0
5.616820000E0,1.082857912E1,-3.257851630E0,-4.418216958E0,1.214052569E1
5.626824000E0,1.103196282E1,-1.876176791E0,-1.386601118E1,1.781826336E1
5.636828000E0,9.939607043E0,-1.145666013E0,-1.122891693E1,1.503984422E1
5.646831000E0,8.322832620E0,-8.460178453E-1,-2.889922309E0,8.850815779E0
5.656835000E0,7.056378919E0,-6.567499065E-1,4.492690605E-1,7.101101786E0
5.666839000E0,6.053921158E0,-7.314077407E-1,1.393849181E0,6.255216559E0
5.676843000E0,5.135506012E0,-1.280341423E0,1.207761104E0,5.428755202E0
5.686846000E0,4.317624384E0,-2.220419918E0,1.032816651E0,4.963754140E0
5.696850000E0,3.578719051E0,-3.122064080E0,1.249217863E0,4.910708648E0
5.706854000E0,3.217697338E0,-3.905851763E0,1.604467204E0,5.308819941E0
5.716857000E0,3.246884007E0,-4.810820652E0,2.003960672E0,6.140204351E0
5.726861000E0,3.091122661E0,-6.161017590E0,2.265762736E0,7.255815449E0
5.736865000E0,2.762356237E0,-7.331850019E0,2.334812506E0,8.175450209E0
5.746868000E0,2.020579044E0,-8.332152497E0,2.412168245E0,8.906517868E0
5.756872000E0,8.638074142E-1,-8.976960635E0,1.708624826E0,9.178855282E0
5.766876000E0,9.232051849E-2,-8.364694591E0,-2.671516818E-1,8.369468842E0
5.776878875E0,6.774233222E-2,-6.824805205E0,-2.033783226E0,7.121715336E0
5.786882875E0,-6.473961157E-1,-5.448795733E0,-2.140092623E-1,5.491292802E0
5.796886875E0,-2.000368727E0,-4.764417733E0,2.399332438E0,5.697187686E0
5.806889875E0,-2.620485828E0,-3.814936330E0,3.758586713E0,5.962185779E0
5.816893875E0,-2.945219720E0,-2.730408220E0,4.302246791E0,5.885471578E0
5.826897875E0,-3.469379919E0,-1.843051144E0,4.289551316E0,5.816673021E0
5.836901875E0,-3.720195065E0,-7.756448507E-2,3.838087796E0,5.345725909E0
5.846904875E0,-3.703424665E0,1.050587947E0,3.619479114E0,5.283911273E0
5.856908875E0,-4.326551328E0,8.871915990E-1,3.711945813E0,5.769289128E0
5.866912875E0,-4.646073596E0,1.214679530E0,3.438808336E0,5.906509036E0
5.876915875E0,-4.339486538E0,2.235173028E0,3.429561549E0,5.965654557E0
5.886919875E0,-4.331693954E0,2.510140098E0,3.750760800E0,6.255604079E0
5.896923875E0,-4.532790225E0,2.456052184E0,4.166445208E0,6.628547746E0
5.906926875E0,-4.591613215E0,2.436543533E0,4.665767896E0,6.984915630E0
5.916930875E0,-4.612309434E0,2.325318967E0,5.315398525E0,7.411745280E0
5.926934875E0,-4.713256350E0,2.138673504E0,5.850797657E0,7.811564696E0
5.936937875E0,-5.205476133E0,1.657327203E0,6.197003109E0,8.261147788E0
5.946941875E0,-5.938877774E0,1.081310973E0,6.277494711E0,8.708986306E0
5.956945875E0,-6.620833274E0,7.374180937E-1,6.129090039E0,9.052345739E0
5.966948875E0,-7.303667609E0,6.287452519E-1,5.973062936E0,9.456022524E0
5.976952875E0,-8.026979880E0,5.111904895E-1,6.010925996E0,1.004116293E1
5.986956875E0,-8.856236681E0,3.545786655E-1,6.012912295E0,1.071045137E1
5.996959875E0,-9.626301534E0,2.443200588E-1,5.840949776E0,1.126241838E1
6.006963875E0,-1.017936861E1,2.796705705E-1,5.534989539E0,1.159024893E1
6.016967875E0,-1.045705288E1,6.252041781E-1,5.123225105E0,1.166140089E1
6.026971875E0,-1.040238610E1,1.207053591E0,4.724278936E0,1.148849104E1
6.036974875E0,-1.007320657E1,1.650781830E0,3.856917000E0,1.091193750E1
6.046978875E0,-9.899439011E0,1.810815445E0,2.232214336E0,1.030828435E1
6.056982875E0,-9.804187868E0,1.626601839E0,4.587036891E-1,9.948785974E0
6.066985875E0,-9.709393392E0,9.250762939E-1,-2.559263141E0,1.008354670E1
6.076989875E0,-9.192103672E0,-5.827428675E-1,-9.936793363E0,1.354895647E1
6.086993875E0,-5.388431418E0,-3.076471585E0,-2.599982449E1,2.672995967E1
6.096996875E0,6.879190158E0,-3.270796196E0,-3.588311583E1,3.668268484E1
6.107000875E0,1.411490494E1,-7.619360536E-1,-1.298590875E0,1.419497891E1
6.117004875E0,1.536450404E1,-5.917616129E-2,-4.941195434E0,1.613960651E1
6.127007875E0,2.166983968E1,-1.748562478E0,-6.424931084E0,2.266978522E1
6.137011875E0,2.321918109E1,-4.421932864E0,6.057437673E-1,2.364425482E1
6.147015875E0,2.007109164E1,-5.192313466E0,2.410863293E0,2.087153805E1
6.157018875E0,1.408934909E1,-4.363568881E0,1.072683406E0,1.478854763E1
6.167022875E0,6.120239693E0,-1.666464062E0,-1.729813235E0,6.574700769E0
6.177026875E0,-1.417318296E-1,1.789890599E0,-4.023274671E0,4.405738910E0
6.187029875E0,-1.960436338E0,1.294633187E0,-2.740568926E0,3.609723502E0
6.197033875E0,-2.463589829E0,-2.352854674E0,-3.119991680E-1,3.420898047E0
6.207037875E0,-3.920834084E0,-6.145025455E0,-1.313534750E0,7.406730135E0
6.217040875E0,-7.167330421E0,-1.005466972E1,-8.904790206E0,1.522374124E1
6.227044875E0,-6.941570594E0,-1.331144254E1,-9.797168870E0,1.792664003E1
6.237048875E0,-5.608608323E-1,-1.207251695E1,3.343639054E0,1.253954355E1
6.247052875E0,2.087724375E0,-1.034322163E1,8.307662019E0,1.342974590E1
6.257055875E0,9.693917567E-1,-6.867800367E0,8.216308630E0,1.075240112E1
6.267059875E0,-1.139536961E0,-3.031639228E0,7.935432948E0,8.570908760E0
6.277063875E0,-2.589732982E0,-1.647511482E-1,8.159074913E0,8.561796733E0
6.287066875E0,-3.953553348E0,1.995982731E0,7.785275280E0,8.956843324E0
6.297070875E0,-5.091035013E0,3.122226632E0,6.155742817E0,8.576718853E0
6.307074875E0,-5.643614434E0,3.743189825E0,5.029504763E0,8.435506630E0
6.317077875E0,-6.089886212E0,4.322042540E0,4.458268046E0,8.697293818E0
6.327081875E0,-6.539937045E0,4.624624840E0,4.270492902E0,9.077171425E0
6.337085875E0,-6.651544604E0,4.559884468E0,4.265564868E0,9.123082573E0
6.347088875E0,-6.309708776E0,4.047036293E0,4.589745029E0,8.789578319E0
6.357092875E0,-4.677317024E0,2.666920906E0,5.396143895E0,7.622868922E0
6.367096875E0,-2.929433992E0,5.463778639E-1,5.566078016E0,6.313583512E0
6.377099875E0,-1.688410417E0,-1.612935142E0,5.314555357E0,5.804893465E0
6.387103875E0,-6.075865173E-1,-3.653421031E0,5.781273093E0,6.865840457E0
6.397107875E0,2.426986259E-1,-5.081215199E0,5.820466980E0,7.730167294E0
6.407111875E0,6.544045883E-1,-5.442119967E0,5.453156587E0,7.731871175E0
6.417114875E0,6.041857767E-1,-4.316587672E0,4.944475722E0,6.591343547E0
6.427118875E0,2.477476966E-1,-2.596102354E0,4.168103478E0,4.916727871E0
6.437122875E0,-1.847527188E-1,-1.038048593E0,3.702580912E0,3.849777118E0
6.447125875E0,-4.885407150E-1,2.456438684E-1,3.368807809E0,3.412898914E0
6.457129875E0,-5.178826278E-1,1.264456877E0,3.102372411E0,3.389951060E0
6.467133875E0,-2.987389255E-1,2.098384434E0,2.617103214E0,3.367742777E0
6.477136875E0,1.564200354E-1,2.728265800E0,1.935579239E0,3.348786122E0
6.487140875E0,5.045293415E-1,2.747034777E0,1.381539184E0,3.115991085E0
6.497144875E0,1.002518865E0,2.398879278E0,6.843533691E-1,2.688495006E0
6.507147875E0,1.727287092E0,2.283921264E0,-2.425173622E-1,2.873783518E0
6.517151875E0,2.731509250E0,2.024262205E0,-1.129959661E0,3.582679039E0
6.527155875E0,3.581511681E0,1.661919022E0,-1.759838980E0,4.322757683E0
6.537158875E0,4.018179407E0,1.296764497E0,-2.119115737E0,4.724194684E0
6.547162875E0,3.981984557E0,1.003850568E0,-2.254915566E0,4.684929155E0
6.557166875E0,3.568494609E0,9.429342753E-1,-2.193462207E0,4.293548099E0
6.567170875E0,2.981923277E0,9.625329727E-1,-2.117472085E0,3.781801712E0
6.577173875E0,2.365408354E0,1.017977441E0,-2.638269550E0,3.686719540E0
6.587177875E0,1.673888564E0,1.017978026E0,-4.000687754E0,4.454625090E0
6.597181875E0,9.405380863E-1,1.053515648E0,-6.249728622E0,6.407309495E0
6.607184875E0,1.690073365E-1,1.312709270E0,-7.892521402E0,8.002728484E0
6.617188875E0,4.201420328E-1,1.902153631E0,-6.701477487E0,6.978861531E0
6.627192875E0,9.260364068E-1,2.136404784E0,-4.710554644E0,5.254625951E0
6.637195875E0,1.235691791E0,1.905114661E0,-2.885450359E0,3.671814245E0
6.647199875E0,1.454597805E0,1.438909725E0,-1.161041851E0,2.352516557E0
6.657203875E0,1.707004855E0,1.106531183E0,-2.602420270E-2,2.034441961E0
6.667206875E0,2.238411216E0,9.274765760E-1,4.096886730E-1,2.457344579E0
6.677210875E0,2.980693023E0,9.162510914E-1,3.806031606E-1,3.141481454E0
6.687214875E0,3.813857519E0,1.099725609E0,2.380533054E-1,3.976377116E0
6.697217875E0,4.514606554E0,1.347489678E0,4.178654194E-2,4.711597063E0
6.707221875E0,4.706030069E0,1.384171600E0,-4.436455008E-1,4.925390478E0
6.717225875E0,4.574608050E0,1.219296491E0,-1.185539346E0,4.880494471E0
6.727228875E0,4.449561542E0,1.176359217E0,-1.704515403E0,4.907931508E0
6.737232875E0,4.489403300E0,1.463157544E0,-1.790432343E0,5.049873262E0
6.747236875E0,4.689631260E0,1.879406793E0,-1.590861026E0,5.296758447E0
6.757240875E0,5.104822748E0,2.080622347E0,-1.163864594E0,5.634073609E0
6.767243875E0,5.550795733E0,1.915214556E0,-6.069792840E-1,5.903202852E0
6.777248500E0,5.913318425E0,1.528748100E0,2.478628868E-1,6.112760552E0
6.787252500E0,6.449430918E0,5.269300246E-1,8.894807839E-1,6.531767791E0
6.797255500E0,7.420818329E0,-8.210695302E-1,1.094882068E0,7.545956970E0
6.807259500E0,8.568592848E0,-2.076153905E0,1.240276301E0,8.903341155E0
6.817263500E0,9.529366978E0,-2.963730251E0,1.432830082E0,1.008194099E1
6.827266500E0,1.013155359E1,-3.314009458E0,1.458860717E0,1.075915013E1
6.837270500E0,1.023176785E1,-3.237765275E0,6.772786036E-1,1.075318109E1
6.847274500E0,9.582028171E0,-3.254773071E0,-8.191077894E-1,1.015281977E1
6.857277500E0,7.721585653E0,-3.243076301E0,-3.861215873E0,9.222224076E0
6.867281500E0,4.912209617E0,-2.705158188E0,-1.646181358E1,1.739077314E1
6.877285500E0,3.356106195E0,-1.876817645E0,-1.820032528E1,1.860208949E1
6.887289500E0,3.652436068E0,-1.028880159E0,-3.073600602E0,4.883226830E0
6.897292500E0,3.249397433E0,-1.194316601E0,1.131886464E0,3.642271652E0
6.907296500E0,2.777267221E0,-1.521082401E0,1.665272985E0,3.577714214E0
6.917300500E0,2.740582667E0,-1.987485557E0,1.576837356E0,3.734609517E0
6.927303500E0,2.271792093E0,-2.735818064E0,1.552264432E0,3.880111423E0
6.937307500E0,1.910938780E0,-3.466752765E0,1.638713177E0,4.284325224E0
6.947311500E0,1.712431363E0,-4.328523009E0,1.884818391E0,5.022058639E0
6.957314500E0,1.522479885E0,-5.284621705E0,2.239897578E0,5.938207872E0
6.967318500E0,1.033567580E0,-6.550058575E0,2.209851075E0,6.989633113E0
6.977322500E0,4.210802186E-1,-7.666731169E0,1.663160970E0,7.856346465E0
6.987325500E0,-1.578379852E-1,-8.655141580E0,4.285365880E-1,8.667181329E0
6.997329500E0,-5.816552854E-1,-8.878495862E0,-7.408562565E-1,8.928318970E0
7.007333500E0,-1.054613755E0,-7.745849259E0,-2.472846337E-1,7.821223729E0
7.017336500E0,-1.706365462E0,-6.320153657E0,1.255503620E0,6.665756872E0
7.027340500E0,-2.559568951E0,-5.233093117E0,2.323856578E0,6.271918860E0
7.037344500E0,-3.441450693E0,-4.178894514E0,3.128082619E0,6.252331014E0
7.047348500E0,-4.226332975E0,-3.274305695E0,3.852938554E0,6.590000281E0
7.057351500E0,-4.835049174E0,-2.090329894E0,4.327486882E0,6.817207808E0
7.067355500E0,-5.115724881E0,-8.777729040E-1,4.784769552E0,7.059401249E0
7.077359500E0,-5.297940493E0,1.659287775E-1,5.123277730E0,7.371816637E0
7.087362500E0,-5.339607752E0,8.910332197E-1,5.186438184E0,7.496965531E0
7.097366500E0,-5.683455607E0,2.110070094E0,8.335571948E0,1.030707636E1
7.107370500E0,-5.878026386E0,2.850916411E0,3.891686883E0,7.604218919E0
7.117373500E0,-4.181955532E0,2.655731090E0,-1.019265436E0,5.057722978E0
7.127377500E0,-3.725286235E0,2.705205551E0,3.133908784E-1,4.614553982E0
7.137381500E0,-3.849869351E0,2.148300360E0,1.657961626E0,4.710151294E0
7.147384500E0,-3.721929349E0,1.876570893E0,3.058305455E0,5.169865438E0
7.157388500E0,-4.031488547E0,9.794846356E-1,4.080582646E0,5.819230601E0
7.167392500E0,-4.834427615E0,1.610627246E-1,4.724367814E0,6.761455673E0
7.177396500E0,-5.344709448E0,5.671138448E-1,5.937306043E0,8.008691544E0
7.187399500E0,-6.272181346E0,5.851291162E-1,6.636824824E0,9.150414125E0
7.197403500E0,-7.190600585E0,4.077520752E-1,6.918043152E0,9.986506876E0
7.207407500E0,-7.706534336E0,6.421453160E-1,6.950462455E0,1.039768967E1
7.217410500E0,-8.162773277E0,9.853289276E-1,6.293194485E0,1.035403484E1
7.227414500E0,-8.791690437E0,1.240279225E0,5.376320080E0,1.037964021E1
7.237418500E0,-9.436913728E0,1.387293429E0,4.498512093E0,1.054592503E1
7.247421500E0,-9.902285435E0,1.564303849E0,3.748907232E0,1.070311211E1
7.257425500E0,-9.985795369E0,1.813258996E0,3.338763646E0,1.068416398E1
7.267429500E0,-9.670200090E0,2.124267719E0,3.054083766E0,1.036111532E1
7.277432500E0,-9.342116913E0,2.341125160E0,2.576107800E0,9.969571045E0
7.287436500E0,-8.909268588E0,2.392839105E0,1.622914585E0,9.366674837E0
7.297440500E0,-8.518700895E0,1.722645280E0,-3.143837357E-1,8.696816017E0
7.307444500E0,-8.417125989E0,-2.330700159E-3,-7.747786442E0,1.144011408E1
7.317447500E0,-6.801005284E0,-3.396289138E0,-2.370458419E1,2.489368925E1
7.327451500E0,4.070826859E0,-4.324800671E0,-2.003295142E1,2.089484804E1
7.337455500E0,1.434478471E1,-3.025150573E0,-1.169644275E0,1.470688451E1
7.347458500E0,1.844521836E1,-2.852728463E0,-7.811871926E0,2.023337547E1
7.357462500E0,2.330524275E1,-4.102479592E0,-7.909292386E0,2.495038245E1
7.367466500E0,2.289156861E1,-6.698401852E0,-1.283612355E0,2.388598253E1
7.377469500E0,2.002252233E1,-6.994307216E0,-2.930623754E-1,2.121102589E1
7.387473500E0,1.504508234E1,-3.792381865E0,-1.942593559E0,1.563682617E1
7.397477500E0,7.291637548E0,7.435383743E-1,-4.616825824E0,8.662326946E0
7.407480500E0,1.092049384E0,5.112034119E0,-6.959529147E0,8.704051392E0
7.417484500E0,-1.551424772E0,6.855797203E0,-5.298532816E0,8.802461253E0
7.427488500E0,-2.710805429E0,5.843075824E0,-1.007545424E0,6.519597299E0
7.437492500E0,-4.527698470E0,4.553169526E0,3.399389917E-1,6.430160549E0
7.447495500E0,-5.855158510E0,1.755847524E0,-2.269730072E0,6.520548774E0
7.457499500E0,-6.509463696E0,-3.471011876E0,-4.708925902E0,8.751858329E0
7.467503500E0,-4.551878461E0,-8.477542344E0,-2.333138448E-1,9.625110756E0
7.477506500E0,-1.198510809E0,-1.320370525E1,3.719495738E0,1.376985509E1
7.487510500E0,2.121215472E0,-1.688819956E1,5.508776472E0,1.789014974E1
7.497514500E0,4.413463756E0,-1.597777405E1,7.722180315E0,1.828660698E1
7.507517500E0,2.908192227E0,-9.284735847E0,7.938779894E0,1.255739336E1
7.517521500E0,4.397106171E-4,-3.781502536E0,6.666969559E0,7.664740356E0
7.527525500E0,-2.498047471E0,-4.733671904E-1,6.580836564E0,7.054908047E0
7.537529500E0,-4.769121233E0,2.304232737E0,1.107311202E1,1.227468189E1
7.547532500E0,-6.737547206E0,3.666165038E0,1.079364318E1,1.324152716E1
7.557536500E0,-6.438653914E0,3.049720573E0,4.795701506E0,8.588120443E0
7.567540500E0,-6.204543094E0,2.500800925E0,1.508392189E0,6.857521948E0
7.577543500E0,-6.502270451E0,2.643056665E0,2.597368642E-1,7.023726418E0
7.587547500E0,-6.948231157E0,2.595062719E0,-7.569747642E-1,7.455553468E0
7.597551500E0,-7.241562577E0,2.034032317E0,-1.363396443E0,7.644368247E0
7.607554500E0,-6.374978905E0,6.568779606E-1,-1.160246557E0,6.512911543E0
7.617558500E0,-5.190136548E0,-1.280128584E0,-5.471912116E-1,5.373608173E0
7.627562500E0,-4.397170490E0,-3.018021063E0,6.667573430E-1,5.374767419E0
7.637565500E0,-3.420154549E0,-4.123100383E0,2.419169117E0,5.877907206E0
7.647569500E0,-3.225391982E0,-4.372493486E0,3.749166849E0,6.601371432E0
7.657573500E0,-3.531150489E0,-4.022902495E0,4.544652472E0,7.021868295E0
7.667577500E0,-3.563378003E0,-3.294235929E0,5.215286007E0,7.123823502E0
7.677580500E0,-3.347084234E0,-2.342389913E0,5.538326545E0,6.882065409E0
7.687584500E0,-3.188035290E0,-1.388899659E0,5.467890401E0,6.480002833E0
7.697588500E0,-2.596262568E0,-5.289104766E-1,5.161329655E0,5.801693668E0
7.707591500E0,-1.456281803E0,-3.399746597E-1,4.390648506E0,4.638333080E0
7.717595500E0,7.798744342E-1,-7.567466497E-3,3.365277845E0,3.454469044E0
7.727599500E0,2.248437144E0,1.408604191E0,1.479448471E0,3.037828688E0
7.737602500E0,3.228153037E0,3.730778525E0,1.883224440E0,5.280739979E0
7.747606500E0,2.971479566E0,3.423017346E0,2.179788201E0,5.029733110E0
7.757610500E0,2.684007932E0,2.296569961E0,2.227218329E0,4.175959010E0
7.767613500E0,2.491710259E0,1.415997995E0,1.216593323E0,3.113481917E0
7.777617125E0,2.621380744E0,1.051732247E0,2.641508907E-1,2.836821006E0
7.787621125E0,2.766181485E0,9.725282031E-1,-3.797423042E-1,2.956649342E0
7.797625125E0,2.974638816E0,1.132237882E0,-1.047604990E0,3.350808100E0
7.807628125E0,3.156017984E0,1.149940912E0,-1.734057583E0,3.780181122E0
7.817632125E0,3.566234660E0,1.194609547E0,-2.136599204E0,4.325526301E0
7.827636125E0,4.343239281E0,1.299933103E0,-2.611606831E0,5.232021002E0
7.837639125E0,4.779746209E0,1.515737461E0,-5.094962003E0,7.148571304E0
7.847643125E0,4.661880667E0,1.804774686E0,-1.225998219E1,1.323999646E1
7.857647125E0,4.958448229E0,2.149439397E0,-1.187523423E1,1.304712561E1
7.867650125E0,5.119111004E0,2.392720406E0,-6.868183360E0,8.893950251E0
7.877654125E0,4.995499111E0,2.239081306E0,-4.192288439E0,6.895199694E0
7.887658125E0,4.636830026E0,1.989709253E0,-1.549428825E0,5.278244527E0
7.897661125E0,4.201590482E0,2.229834520E0,-1.452279384E0,4.973393205E0
7.907665125E0,3.968549702E0,2.325048240E0,-2.283093299E0,5.134953853E0
7.917669125E0,4.024984981E0,2.157835414E0,-1.891225185E0,4.943024426E0
7.927672125E0,4.247251389E0,2.079956934E0,-9.382272667E-1,4.821372793E0
7.937676125E0,4.434380124E0,2.183697065E0,-4.769772613E-1,4.965860173E0
7.947680125E0,4.475837760E0,2.182738121E0,-5.293425858E-1,5.007761269E0
7.957684125E0,4.245203109E0,2.042367523E0,-5.190184495E-1,4.739450885E0
7.967687125E0,3.796693017E0,2.019507249E0,-4.163471898E-1,4.320489831E0
7.977691125E0,3.673597141E0,2.070087419E0,-2.553973165E-1,4.224429626E0
7.987695125E0,4.020215700E0,2.311591458E0,-3.967803597E-2,4.637581664E0
7.997698125E0,4.420237171E0,2.388234422E0,3.994870359E-1,5.040014900E0
8.007702125E0,5.013032572E0,1.987346393E0,1.070685997E0,5.497855014E0
8.017706125E0,5.627586046E0,1.326420990E0,1.928655259E0,6.094983877E0
8.027709125E0,6.287132092E0,3.865413004E-1,2.518230890E0,6.783725446E0
8.037713125E0,7.059613599E0,-7.334443259E-1,2.700405571E0,7.593963062E0
8.047717125E0,7.945899464E0,-1.822749027E0,3.091346902E0,8.718724561E0
8.057720125E0,8.588745861E0,-2.441334742E0,3.469175851E0,9.579240673E0
8.067724125E0,8.475260176E0,-2.785048696E0,3.201918042E0,9.478333737E0
8.077728125E0,7.359739484E0,-3.274585776E0,1.737754485E0,8.240659435E0
8.087731125E0,6.451679172E0,-3.815150338E0,-3.394165429E-1,7.502982063E0
8.097735125E0,4.924914447E0,-4.870787941E0,-1.256653767E1,1.434911936E1
8.107739125E0,1.798755855E0,-6.075732442E0,-3.373835713E1,3.432822147E1
8.117743125E0,2.223128056E0,-3.732219279E0,-9.212744343E0,1.018559853E1
8.127746125E0,1.867436665E0,-2.912455432E0,1.447200784E0,3.750214187E0
8.137750125E0,1.686471188E0,-2.686555272E0,1.421351706E0,3.475917860E0
8.147754125E0,1.368813888E0,-2.785936303E0,8.168425781E-1,3.209723406E0
8.157757125E0,1.395172260E0,-3.146066315E0,3.832662749E-1,3.462821383E0
8.167761125E0,1.146938952E0,-3.837173876E0,-8.922799923E-2,4.005912374E0
8.177765125E0,6.924761018E-1,-4.829162782E0,-3.465872759E-1,4.890854636E0
8.187768125E0,2.104649726E-1,-5.895445241E0,-3.634695031E-2,5.899312773E0
8.197772125E0,-2.275087291E-1,-6.865068548E0,2.759306548E-1,6.874377362E0
8.207776125E0,-5.236240089E-1,-7.694707757E0,-6.850363970E-1,7.742866681E0
8.217779125E0,-5.499002266E-1,-7.897051240E0,-2.101143150E0,8.190275397E0
8.227783125E0,-6.691647148E-1,-7.193855145E0,-1.721324978E0,7.427132215E0
8.237787125E0,-1.012550640E0,-6.069689929E0,2.319040811E-1,6.157935866E0
8.247790125E0,-1.397162944E0,-5.112955640E0,1.594243348E0,5.534978909E0
8.257794125E0,-2.022651882E0,-4.209598244E0,2.284434650E0,5.199084504E0
8.267798125E0,-2.621386884E0,-3.433981460E0,2.630599172E0,5.058057914E0
8.277801125E0,-3.000846037E0,-2.718739516E0,3.059607046E0,5.075215933E0
8.287805125E0,-3.299626477E0,-1.851098083E0,3.331024271E0,5.040815579E0
8.297809125E0,-3.539865764E0,-9.816241318E-1,3.416754978E0,5.016816734E0
8.307812125E0,-3.814169176E0,-3.517959756E-1,3.476963757E0,5.173096160E0
8.317816125E0,-4.022925299E0,1.193346548E-1,3.652169727E0,5.434750449E0
8.327820125E0,-4.095433112E0,6.674076265E-1,3.213398173E0,5.248231429E0
8.337824125E0,-4.039701546E0,1.037711794E0,2.478144718E0,4.851518895E0
8.347827125E0,-4.163306422E0,1.138629473E0,2.161384820E0,4.827129767E0
8.357831125E0,-4.335883484E0,1.162247547E0,1.823246040E0,4.845093505E0
8.367835125E0,-4.386011664E0,1.172029939E0,1.924803990E0,4.931087394E0
8.377838125E0,-4.461331987E0,1.191617526E0,2.456988323E0,5.230700436E0
8.387842125E0,-4.689359949E0,1.299743069E0,3.359261645E0,5.913042159E0
8.397846125E0,-5.033738147E0,1.424275314E0,4.314858943E0,6.781230537E0
8.407849125E0,-5.763691100E0,1.433677052E0,4.954102578E0,7.734254802E0
8.417853125E0,-6.704379460E0,1.402294461E0,5.256307733E0,8.633881206E0
8.427857125E0,-7.528521702E0,1.526826705E0,5.206725683E0,9.280077109E0
8.437860125E0,-8.199340010E0,1.767785785E0,4.806687255E0,9.667392903E0
8.447864125E0,-8.749415068E0,2.120586312E0,4.164881662E0,9.919445025E0
8.457868125E0,-9.196737590E0,2.375054798E0,3.638104835E0,1.017136541E1
8.467871125E0,-9.518278318E0,2.367939906E0,3.597113514E0,1.044719997E1
8.477875125E0,-9.664970341E0,2.315804377E0,3.789039012E0,1.063632541E1
8.487879125E0,-9.614922268E0,2.265703095E0,3.814383184E0,1.058912932E1
8.497882125E0,-9.176762917E0,2.314802164E0,3.600828835E0,1.012606809E1
8.507886125E0,-8.630712497E0,2.425647247E0,3.081610118E0,9.479941123E0
8.517890125E0,-8.185065787E0,2.412990949E0,2.298795412E0,8.837549864E0
8.527894125E0,-7.487851979E0,2.042386234E0,3.686343487E-1,7.770145434E0
8.537897125E0,-6.786697732E0,5.853478020E-1,-4.718819976E0,8.286685713E0
8.547901125E0,-5.535760202E0,-2.357584487E0,-1.840642442E1,1.936489881E1
8.557905125E0,1.278337582E0,-5.948869497E0,-3.341800222E1,3.396742657E1
8.567908125E0,1.384307022E1,-4.893555830E0,-1.404500264E1,2.031845420E1
8.577912125E0,1.710513828E1,-1.712235482E0,-6.184974217E0,1.826941192E1
8.587916125E0,2.051094025E1,-2.324287518E0,-8.839448740E0,2.245521847E1
8.597919125E0,2.174976410E1,-5.939756026E0,-2.121235207E0,2.264580709E1
8.607923125E0,2.044813414E1,-6.797582324E0,-2.104832451E-1,2.154942269E1
8.617927125E0,1.631395620E1,-4.205223357E0,-1.368829530E0,1.690274430E1
8.627930125E0,7.238948287E0,6.771929419E-1,-2.585417737E0,7.716563190E0
8.637934125E0,3.335865766E-1,4.218441573E0,-2.098835839E0,4.723520000E0
8.647938125E0,-1.829182718E0,4.093848517E0,2.473524249E-1,4.490733606E0
8.657941125E0,-3.322113699E0,1.833582163E0,1.618181849E0,4.125163691E0
8.667945125E0,-4.297724555E0,-2.728592075E0,1.679128547E0,5.360515249E0
8.677949125E0,-6.117178676E0,-7.074366124E0,-1.786565287E0,9.521467667E0
8.687952125E0,-8.009086815E0,-1.137761279E1,-7.338069702E0,1.573031504E1
8.697956125E0,-3.600006132E0,-1.270843907E1,1.130591818E0,1.325679847E1
8.707960125E0,2.234127545E-1,-1.310673854E1,7.150143700E0,1.493188077E1
8.717963125E0,-1.146791017E-1,-1.152429370E1,7.347263864E0,1.366765462E1
8.727967125E0,-1.887152014E0,-6.972121126E0,7.368248352E0,1.031808604E1
8.737971125E0,-3.951364151E0,-3.121560050E0,7.282591320E0,8.854013335E0
8.747974125E0,-5.419062057E0,-3.164027792E-1,7.087859159E0,8.927714811E0
8.757978125E0,-6.480863795E0,1.614498103E0,6.614669724E0,9.400109319E0
8.767982125E0,-7.006460069E0,2.872192674E0,6.179018244E0,9.773445652E0
8.777986375E0,-7.464534452E0,3.495848510E0,6.170664911E0,1.029647206E1
8.787989375E0,-7.536512507E0,3.532060901E0,6.173330072E0,1.036264827E1
8.797993375E0,-7.388807162E0,2.956743997E0,6.020853399E0,9.979352784E0
8.807997375E0,-6.883128258E0,1.900902911E0,6.065433741E0,9.369118046E0
8.818000375E0,-5.491009707E0,4.708879709E-1,5.779647567E0,7.986065933E0
8.828004375E0,-3.695552559E0,-8.729857886E-1,5.226102186E0,6.459981189E0
8.838008375E0,-2.618120044E0,-2.350142151E0,4.957247211E0,6.078817369E0
8.848011375E0,-2.195689119E0,-3.634064409E0,4.748931967E0,6.370229954E0
8.858015375E0,-1.873791711E0,-4.182906289E0,4.445608824E0,6.385235957E0
8.868019375E0,-1.605710322E0,-3.960120941E0,4.069676127E0,5.901112377E0
8.878022375E0,-1.376239268E0,-3.157706952E0,3.734626577E0,5.080608565E0
8.888026375E0,-1.106807172E0,-2.209282726E0,3.605958012E0,4.371371120E0
8.898030375E0,-7.872159058E-1,-1.259601933E0,3.576361161E0,3.872552784E0
8.908033375E0,-3.575721475E-1,-1.925488114E-1,3.538384665E0,3.561614651E0
8.918037375E0,1.212847012E-1,6.204965848E-1,3.773128154E0,3.825731571E0
8.928041375E0,1.059001798E0,1.871499603E0,3.291015868E0,3.931256925E0
8.938044375E0,1.514018672E0,2.774383959E0,2.975079696E0,4.340571171E0
8.948048375E0,1.801690280E0,2.864039901E0,2.159869076E0,4.014205631E0
8.958052375E0,2.392390038E0,2.766290243E0,9.567961232E-1,3.780390274E0
8.968055375E0,3.113744954E0,2.556480451E0,-1.989461039E-1,4.033680638E0
8.978059375E0,3.810051859E0,2.150666143E0,-1.123757080E0,4.517155078E0
8.988063375E0,4.620167508E0,1.909223499E0,-1.760822920E0,5.300149010E0
8.998066375E0,5.359419873E0,1.736490317E0,-2.050496323E0,5.995274403E0
9.008070375E0,5.916615670E0,1.674776464E0,-2.034911154E0,6.477042581E0
9.018074375E0,6.328159080E0,1.772655346E0,-1.611808383E0,6.766522784E0
9.028077375E0,6.775750574E0,2.159541632E0,-2.366689771E-2,7.111608540E0
9.038081375E0,7.093317534E0,2.709463493E0,3.467685395E-1,7.601091664E0
9.048085375E0,6.610196604E0,3.182427226E0,-2.513675617E0,7.755069780E0
9.058089375E0,6.147789434E0,3.230832231E0,-5.779674464E0,9.035387581E0
9.068092375E0,5.501256952E0,3.247609647E0,-1.000306103E1,1.186895220E1
9.078096375E0,4.390993491E0,2.755560603E0,-1.281456370E1,1.382342146E1
9.088100375E0,3.911348730E0,2.165811017E0,-9.062690756E0,1.010553066E1
9.098103375E0,3.513519672E0,1.659581890E0,-4.822156941E0,6.192917737E0
9.108107375E0,3.149908228E0,1.473829297E0,-3.496776170E0,4.931687158E0
9.118111375E0,3.322120131E0,1.601143647E0,-2.912943674E0,4.699508910E0
9.128114375E0,3.597863419E0,1.522774000E0,-2.199825439E0,4.483602771E0
9.138118375E0,3.825706024E0,1.363492337E0,-1.634973882E0,4.378159149E0
9.148122375E0,3.957027179E0,1.409878299E0,-1.254610458E0,4.384047025E0
9.158125375E0,3.974218578E0,1.716733160E0,-7.168853036E-1,4.388110138E0
9.168129375E0,3.767781752E0,2.030215255E0,-1.848597229E-3,4.279948216E0
9.178133375E0,3.472221665E0,2.319014499E0,6.146429372E-1,4.220419112E0
9.188136375E0,3.439022929E0,2.515373940E0,1.162418286E0,4.416469295E0
9.198140375E0,3.668143736E0,2.573570108E0,1.400034219E0,4.694532712E0
9.208144375E0,3.951988926E0,2.372603645E0,1.429276145E0,4.826001950E0
9.218147375E0,4.233056981E0,2.027434904E0,1.426561575E0,4.905541929E0
9.228151375E0,4.486056939E0,1.393459902E0,1.502994916E0,4.932081820E0
9.238155375E0,4.771216583E0,4.959748650E-1,1.778604303E0,5.116046522E0
9.248158375E0,5.326655585E0,-6.497613144E-1,1.931770363E0,5.703261016E0
9.258162375E0,6.244691831E0,-1.910302895E0,1.949029005E0,6.814994298E0
9.268166375E0,7.562884035E0,-3.087621641E0,1.954721854E0,8.399497595E0
9.278169375E0,8.739755468E0,-3.667388860E0,2.180594532E0,9.725639269E0
9.288173375E0,9.425083056E0,-3.535656939E0,2.179837317E0,1.029974521E1
9.298177375E0,8.937372061E0,-3.248180335E0,1.272790913E0,9.594127973E0
9.308180375E0,7.814886750E0,-3.466477361E0,-1.779108918E-1,8.551056806E0
9.318184375E0,6.562387429E0,-3.235341604E0,-1.620263808E1,1.777801577E1
9.328188375E0,4.702628743E0,-3.165284359E0,-3.098556519E1,3.149982527E1
9.338191375E0,4.363129462E0,-2.081804069E0,-5.213904310E0,7.110246482E0
9.348195375E0,3.854834514E0,-2.220703508E0,2.029076071E0,4.889624004E0
9.358199375E0,3.446392760E0,-2.706889549E0,2.241657590E0,4.922387920E0
9.368202375E0,3.334195216E0,-3.273757226E0,2.376494383E0,5.242334372E0
9.378206375E0,3.164047088E0,-3.996736790E0,2.295506353E0,5.590567803E0
9.388210375E0,2.921517154E0,-4.991741690E0,2.626984423E0,6.352463675E0
9.398213375E0,2.589300580E0,-5.900315387E0,2.921081244E0,7.074667116E0
9.408217375E0,1.986794416E0,-6.975279207E0,3.097034488E0,7.886285228E0
9.418221375E0,1.164171866E0,-8.191052751E0,2.894792747E0,8.765184901E0
9.428224375E0,3.268108231E-1,-8.858596618E0,1.835739786E0,9.052705668E0
9.438228375E0,-2.534627652E-1,-8.330517615E0,-4.134267980E-1,8.344620352E0
9.448232375E0,-6.329628485E-1,-6.847440362E0,-3.167353104E0,7.571010974E0
9.458235375E0,-8.872325295E-1,-5.322115222E0,-2.459466373E0,5.929676790E0
9.468239375E0,-1.865182271E0,-4.648989603E0,2.540143769E-2,5.009256878E0
9.478243375E0,-2.884698114E0,-4.042229882E0,1.657942915E0,5.235444617E0
9.488246375E0,-3.627087511E0,-3.233721340E0,2.963919700E0,5.691883476E0
9.498250375E0,-4.144766656E0,-2.287157698E0,3.800363899E0,6.070662792E0
9.508254375E0,-4.550939983E0,-1.296683806E0,4.277441733E0,6.378789179E0
9.518257375E0,-4.784724528E0,-3.218465370E-1,4.445526963E0,6.539104219E0
9.528261375E0,-4.985279932E0,5.308312869E-1,4.464537431E0,6.713187941E0
9.538265375E0,-5.089366803E0,1.373011605E0,4.495666838E0,6.928047029E0
9.548268375E0,-5.070833468E0,2.016835071E0,4.182139134E0,6.875410061E0
9.558272375E0,-4.826529781E0,2.735583006E0,5.879915621E0,8.084071488E0
9.568276375E0,-4.895548561E0,3.456589134E0,3.138252096E0,6.764837793E0
9.578280375E0,-4.844648548E0,3.046341467E0,1.234094771E0,5.854383469E0
9.588283375E0,-4.689800829E0,2.582628615E0,2.480882677E0,5.900761073E0
9.598287375E0,-4.991427695E0,1.529715815E0,3.673226720E0,6.383335761E0
9.608291375E0,-5.726839024E0,8.003943604E-1,4.811328775E0,7.522380003E0
9.618294375E0,-6.148057821E0,1.134175649E0,6.088426162E0,8.726620337E0
9.628298375E0,-6.979835942E0,9.220339876E-1,6.687280447E0,9.710199598E0
9.638302375E0,-7.696260778E0,5.771605307E-1,6.919322523E0,1.036545071E1
9.648305375E0,-8.223194311E0,6.282236803E-1,6.805707614E0,1.069267253E1
9.658309375E0,-8.840738052E0,7.218861347E-1,6.341492486E0,1.090386610E1
9.668313375E0,-9.476271336E0,8.629788637E-1,5.820514927E0,1.115449887E1
9.678316375E0,-9.827513580E0,1.124820689E0,5.386317065E0,1.126311042E1
9.688320375E0,-9.970959814E0,1.557646794E0,4.898254360E0,1.121780722E1
9.698324375E0,-1.001208445E1,2.018416743E0,4.524912271E0,1.117097454E1
9.708327375E0,-9.616536099E0,2.395935205E0,4.037728111E0,1.070147281E1
9.718331375E0,-8.969563907E0,2.659782041E0,3.112688069E0,9.859834897E0
9.728335375E0,-8.645100741E0,2.477403876E0,1.951047463E0,9.202275968E0
9.738338375E0,-7.996849177E0,2.101585200E0,3.378356020E-1,8.275287911E0
9.748342375E0,-7.390015782E0,7.514327002E-1,-3.549899586E0,8.232786371E0
9.758346375E0,-7.647590894E0,-3.290404249E0,-1.852920543E1,2.031363730E1
9.768349375E0,3.578899437E-1,-7.361605330E0,-4.603969434E1,4.662590238E1
9.778353375E0,1.599107763E1,-3.708892981E0,-1.161884318E1,2.011138901E1
9.788357375E0,1.694235881E1,-8.699890906E-1,-3.230381995E0,1.726950407E1
9.798360375E0,2.292447206E1,-1.248826684E0,-8.122229269E0,2.435285601E1
9.808364375E0,2.565382135E1,-4.826557848E0,-7.698736489E-1,2.611526213E1
9.818368375E0,2.268400883E1,-6.423700830E0,1.803343434E0,2.364487759E1
9.828371375E0,1.582860222E1,-4.853631041E0,1.335371908E0,1.660980435E1
9.838375375E0,6.004106973E0,-1.187337365E0,-2.579756463E-1,6.125816027E0
9.848379375E0,-5.548042864E-1,1.640284908E0,-1.837867734E0,2.525094094E0
9.858382375E0,-1.974623437E0,-9.196442306E-2,-1.077738909E0,2.251469815E0
9.868386375E0,-2.856527399E0,-3.781142347E0,-2.150907779E-1,4.743738007E0
9.878390375E0,-4.686503000E0,-7.103927892E0,-2.855905255E0,8.976931362E0
9.888393375E0,-9.362752322E0,-1.136519213E1,-1.553835813E1,2.140722534E1
9.898397375E0,-7.164196898E0,-1.393518258E1,-1.151539307E1,1.944529013E1
9.908401375E0,-2.154506010E-1,-1.209088188E1,6.180669497E0,1.358074074E1
9.918404375E0,9.600648630E-1,-9.421944855E0,1.137314785E1,1.480011019E1
9.928408375E0,-1.934345477E0,-5.566052288E0,9.377220672E0,1.107496718E1
9.938412375E0,-4.283084296E0,-2.173400702E0,8.369799210E0,9.649975156E0
9.948415375E0,-5.492846902E0,3.172728449E-1,7.935194381E0,9.656051937E0
9.958419375E0,-6.213739010E0,2.319121503E0,7.593803526E0,1.008239699E1
9.968423375E0,-6.529333704E0,3.656674422E0,7.411787889E0,1.053271409E1
9.978426375E0,-6.605322365E0,4.332480404E0,7.077102621E0,1.060594416E1
9.988430375E0,-6.484293771E0,4.329288994E0,6.777100697E0,1.033043575E1
9.998434375E0,-6.285722913E0,3.677956533E0,6.754777197E0,9.933010207E0
1.000843738E1,-5.749695205E0,2.837426884E0,7.293408669E0,9.711014174E0
1.001844137E1,-4.009736320E0,2.054508097E0,7.765250906E0,8.977645042E0
1.002844538E1,-2.134724002E0,9.893991745E-1,7.521640699E0,7.881055519E0
1.003844838E1,-8.830476773E-1,-8.471095204E-1,6.944431636E0,7.051418190E0
1.004845237E1,-2.011509427E-1,-2.533631871E0,6.177688587E0,6.680088954E0
1.005845638E1,2.948470187E-1,-3.560579526E0,5.812694861E0,6.822908681E0
1.006845938E1,7.385849056E-1,-3.765710961E0,5.546921368E0,6.744955401E0
1.007846338E1,1.020018412E0,-3.205191021E0,5.030102348E0,6.051083926E0
1.008846737E1,1.124818642E0,-2.203215070E0,4.541855164E0,5.171829652E0
1.009847038E1,1.311872825E0,-1.111563882E0,4.064439361E0,4.413190670E0
1.010847438E1,1.381482466E0,-1.162449861E-1,3.585992694E0,3.844652170E0
1.011847837E1,1.093896227E0,8.196644443E-1,3.315510439E0,3.586233153E0
1.012848137E1,8.729191303E-1,1.622975396E0,3.058869127E0,3.571094689E0
1.013848538E1,6.169827005E-1,2.232490910E0,3.150265201E0,3.910096437E0
1.014848938E1,4.574998936E-1,2.368589532E0,1.776425046E0,2.995865228E0
1.015849237E1,9.250505662E-1,2.236578113E0,-6.418570483E-1,2.503992947E0
1.016849638E1,1.594277846E0,2.272349040E0,-2.723520784E0,3.888811833E0
1.017850038E1,1.970249720E0,2.189796295E0,-4.077452340E0,5.030179853E0
1.018850338E1,2.258621824E0,2.058136879E0,-4.801423591E0,5.691306393E0
1.019850737E1,2.654446164E0,1.836316321E0,-4.903153449E0,5.870183627E0
1.020851138E1,3.246216840E0,1.471495088E0,-4.482207717E0,5.726552854E0
1.021851438E1,4.339221659E0,1.133186300E0,-2.980895922E0,5.385043760E0
1.022851837E1,5.601648383E0,1.117382446E0,-3.102072742E0,6.499989494E0
1.023852238E1,4.774442199E0,1.332622547E0,-5.791430876E0,7.623113063E0
1.024852538E1,3.893914380E0,1.744971119E0,-6.613703763E0,7.870741444E0
1.025852938E1,3.789493048E0,2.362437091E0,-5.836462038E0,7.348854040E0
1.026853337E1,3.665964771E0,2.841328146E0,-4.861117816E0,6.718847353E0
1.027853638E1,3.397711473E0,2.721829770E0,-3.525475182E0,5.601943931E0
1.028854038E1,3.174973488E0,2.433833933E0,-2.072394145E0,4.505421374E0
1.029854437E1,3.262093492E0,2.116894965E0,-1.271757856E0,4.091438169E0
1.030854737E1,3.403734983E0,1.846587541E0,-9.224127410E-1,3.980721372E0
1.031855138E1,3.342383365E0,1.420721376E0,-7.861315396E-1,3.715908850E0
1.032855538E1,3.197985789E0,1.016778762E0,-6.574973269E-1,3.419540158E0
1.033855837E1,3.125010492E0,7.966451257E-1,-2.152301610E-1,3.232129028E0
1.034856238E1,3.129800531E0,8.918968534E-1,1.262732533E-1,3.256850671E0
1.035856638E1,3.130219776E0,1.148076820E0,2.881040096E-1,3.346544509E0
1.036856938E1,3.186756504E0,1.619895083E0,1.943102852E-1,3.580116420E0
1.037857337E1,3.205838892E0,1.999877561E0,-1.478971338E-1,3.781373669E0
1.038857738E1,3.123973196E0,1.992507731E0,-5.681417853E-1,3.748610499E0
1.039858038E1,3.105486054E0,1.761258538E0,-7.260288870E-1,3.643239384E0
1.040858437E1,3.315364843E0,1.583223685E0,-9.846719930E-1,3.803658793E0
1.041858838E1,3.564272627E0,1.448509099E0,-1.396187336E0,4.092866605E0
1.042859138E1,3.925645173E0,1.225319708E0,-1.331491988E0,4.322611401E0
1.043859538E1,4.347788415E0,7.128200269E-1,-5.703263050E-1,4.442594803E0
1.044859937E1,4.820335241E0,-8.651423335E-2,5.418070954E-1,4.851460757E0
1.045860238E1,5.621468689E0,-1.084359711E0,1.217217806E0,5.853064616E0
1.046860638E1,7.068713036E0,-2.142550208E0,1.291002066E0,7.498260579E0
1.047861037E1,8.942596548E0,-3.112194564E0,1.824336985E0,9.642820825E0
1.048861337E1,1.094493754E1,-3.827081582E0,2.783778096E0,1.192424554E1
1.049861738E1,1.196263139E1,-3.389121037E0,-2.067431613E0,1.260416458E1
1.050862138E1,1.177277464E1,-1.679823781E0,-2.195560246E1,2.496935142E1
1.051862437E1,1.037127657E1,-7.985179889E-1,-1.732398786E1,2.020696821E1
1.052862838E1,7.627874082E0,-3.431637311E-1,-8.789422010E-1,7.686010913E0
1.053863238E1,5.783364058E0,4.820444584E-3,1.731434814E0,6.036985140E0
1.054863538E1,4.668460831E0,1.619374681E-1,1.921178132E0,5.050908402E0
1.055863937E1,3.856812042E0,-2.539048147E-1,1.867040516E0,4.292470975E0
1.056864338E1,3.286719041E0,-1.302550317E0,1.777254766E0,3.956993036E0
1.057864638E1,3.020194473E0,-2.536250839E0,1.673385412E0,4.284199075E0
1.058865037E1,3.037367453E0,-3.729838877E0,1.552662628E0,5.054508911E0
1.059865438E1,3.112704734E0,-5.120019076E0,1.623923230E0,6.208111851E0
1.060865738E1,2.891285003E0,-6.845485638E0,1.913510678E0,7.673442884E0
1.061866138E1,2.299074324E0,-8.735510974E0,2.193129208E0,9.295413409E0
1.062866537E1,1.249323113E0,-1.073839751E1,2.033158743E0,1.100035108E1
1.063866838E1,1.314997870E-1,-1.254326692E1,3.037044175E-1,1.254763219E1
1.064867238E1,-6.941615617E-1,-1.251538974E1,-1.676389711E0,1.264622960E1
1.065867637E1,-1.308563594E0,-9.774883962E0,-2.650273518E-1,9.865644157E0
1.066867937E1,-2.045789314E0,-7.310093114E0,1.939063010E0,7.834709989E0
1.067868338E1,-3.087376642E0,-5.705415410E0,3.092552598E0,7.186622371E0
1.068868738E1,-3.954559654E0,-4.317450137E0,4.195598255E0,7.202913470E0
1.069869037E1,-4.389330543E0,-2.793331277E0,4.943706229E0,7.176987775E0
1.070869438E1,-4.633022611E0,-1.232995933E0,5.090532153E0,6.992760191E0
1.071869838E1,-4.760272057E0,7.079633296E-2,4.851888571E0,6.797501370E0
1.072870138E1,-4.533698298E0,1.305328914E0,3.756046683E0,6.030438666E0
1.073870537E1,-4.005904639E0,2.327494131E0,1.609019262E0,4.904431047E0
1.074870938E1,-3.879011874E0,2.650363930E0,9.442491679E-1,4.791948306E0
1.075871238E1,-3.961810786E0,2.492227153E0,1.801859264E0,5.015360176E0
1.076871637E1,-4.116581322E0,2.271807588E0,2.844847001E0,5.495498699E0
1.077872013E1,-4.169662930E0,2.129495130E0,4.077960463E0,6.208912948E0
1.078872313E1,-4.186400585E0,2.076735703E0,5.308421627E0,7.072349059E0
1.079872713E1,-4.445357979E0,2.161650138E0,6.330866926E0,8.032049235E0
1.080873112E1,-5.057949713E0,2.204468129E0,6.859500829E0,8.803140727E0
1.081873413E1,-6.038189224E0,2.010665674E0,7.075626783E0,9.516669582E0
1.082873813E1,-6.793364142E0,1.823413271E0,7.171075562E0,1.004484729E1
1.083874212E1,-7.525847186E0,1.853083797E0,6.959840219E0,1.041689355E1
1.084874512E1,-8.158453939E0,2.042197954E0,6.385261234E0,1.055947462E1
1.085874913E1,-8.743515227E0,2.222364117E0,5.852252444E0,1.075345616E1
1.086875313E1,-9.275569167E0,2.265750457E0,5.611959947E0,1.107537372E1
1.087875612E1,-9.837456186E0,2.262602901E0,5.184664139E0,1.134793630E1
1.088876013E1,-1.031102686E1,2.286420364E0,4.674192564E0,1.154959173E1
1.089876413E1,-1.040187973E1,2.548037657E0,4.088981002E0,1.146347955E1
1.090876713E1,-9.899075314E0,3.019454800E0,3.501071827E0,1.092548870E1
1.091877112E1,-9.301535482E0,3.339079396E0,2.707212608E0,1.024680505E1
1.092877513E1,-8.513923135E0,3.574382463E0,1.842019257E0,9.415738531E0
1.093877813E1,-7.894267380E0,3.355700106E0,1.029636204E0,8.639463605E0
1.094878212E1,-7.750580826E0,2.264581599E0,-1.381219926E0,8.191922940E0
1.095878613E1,-7.733305812E0,-4.662587303E-1,-9.303584347E0,1.210694419E1
1.096878913E1,-3.759670787E0,-4.689868072E0,-2.954006331E1,3.014540309E1
1.097879313E1,1.053297079E1,-3.847403580E0,-1.795150403E1,2.116606919E1
1.098879712E1,1.528550231E1,-1.878965328E0,-2.830864262E0,1.565857222E1
1.099880013E1,1.849821168E1,-2.206118213E0,-1.063051288E1,2.144897659E1
1.100880413E1,2.148717968E1,-4.316094752E0,-6.934100776E0,2.298715550E1
1.101880812E1,1.958752924E1,-6.233966868E0,-1.605231435E0,2.061820585E1
1.102881112E1,1.469928853E1,-6.926728606E0,-8.683419299E-1,1.627275853E1
1.103881513E1,8.037042353E0,-6.047432503E0,-2.697215331E0,1.041347493E1
1.104881913E1,1.695173891E0,-2.405912309E0,-5.030977092E0,5.828615535E0
1.105882212E1,-1.790829077E0,2.851242101E0,-4.512865838E0,5.630506937E0
1.106882613E1,-2.258051428E0,3.854117353E0,3.793531720E-1,4.482959475E0
1.107883013E1,-2.606432630E0,3.221648594E0,2.964186333E0,5.094988846E0
1.108883313E1,-3.538244916E0,1.424235553E-1,2.965194393E0,4.618640422E0
1.109883712E1,-3.960789278E0,-5.732556431E0,1.431366817E0,7.113287981E0
1.110884113E1,-5.384556468E0,-1.120820024E1,-4.398316544E0,1.318948026E1
1.111884413E1,-6.056358862E0,-1.569207675E1,-1.154529690E1,2.040133907E1
1.112884812E1,7.511245519E-1,-1.485017242E1,1.354652517E0,1.493073650E1
1.113885213E1,3.960357753E0,-1.337087949E1,8.636998254E0,1.640312747E1
1.114885513E1,2.457492937E0,-8.843471040E0,9.469831213E0,1.318802316E1
1.115885913E1,4.626843274E-2,-3.690559621E0,9.357969300E0,1.005952089E1
1.116886312E1,-1.848097292E0,-3.625449121E-1,9.323546741E0,9.511857140E0
1.117886613E1,-3.742492252E0,2.181630659E0,8.669150923E0,9.691229969E0
1.118887013E1,-5.161771120E0,3.635436165E0,6.751831369E0,9.243781913E0
1.119887412E1,-5.803525842E0,3.973347927E0,4.992234610E0,8.625010861E0
1.120887712E1,-6.146158646E0,4.353056172E0,3.420209513E0,8.271771107E0
1.121888113E1,-6.475141125E0,4.687981176E0,2.550411626E0,8.391020174E0
1.122888512E1,-6.798137809E0,4.757589355E0,2.064286981E0,8.550474541E0
1.123888812E1,-7.087083818E0,4.426001941E0,2.010445819E0,8.594076018E0
1.124889213E1,-6.574322181E0,3.260392245E0,2.306500872E0,7.692321887E0
1.125889613E1,-4.921442955E0,1.300641201E0,2.507639244E0,5.674550455E0
1.126890012E1,-3.669388023E0,-1.035598610E0,2.910068014E0,4.796391226E0
1.127890312E1,-2.421036717E0,-3.643741550E0,3.779394615E0,5.781184561E0
1.128890713E1,-1.194112533E0,-5.946425945E0,4.653334669E0,7.644567339E0
1.129891112E1,-2.330758631E-2,-7.014846146E0,5.104047407E0,8.675246949E0
1.130891412E1,6.336153978E-1,-6.110041564E0,5.148319016E0,8.014940117E0
1.131891813E1,5.483431131E-1,-4.322111537E0,4.666286252E0,6.384007808E0
1.132892213E1,-4.835004151E-2,-2.465642202E0,4.258532422E0,4.921059600E0
1.133892513E1,-5.430233163E-1,-7.257107985E-1,4.159689919E0,4.257293825E0
1.134892913E1,-8.136315796E-1,6.880716866E-1,4.260804650E0,4.392026327E0
1.135893313E1,-5.865733784E-1,1.854381879E0,4.001956015E0,4.449545193E0
1.136893613E1,1.136792278E-1,2.818555580E0,3.210293301E0,4.273542045E0
1.137894012E1,8.710857359E-1,3.270203288E0,2.308723253E0,4.096733206E0
1.138894413E1,1.529505315E0,3.145452358E0,1.257291114E0,3.716724093E0
1.139894713E1,2.456030549E0,2.709721355E0,4.089295582E-1,3.679931965E0
1.140895112E1,3.705092291E0,2.266935103E0,-5.843485129E-1,4.382712269E0
1.141895513E1,4.675923632E0,1.959670352E0,-1.461197557E0,5.276330923E0
1.142895813E1,5.453430237E0,1.774301922E0,-1.964249599E0,6.061874722E0
1.143896213E1,5.798003147E0,1.785477120E0,-2.227639475E0,6.462750704E0
1.144896612E1,5.734428710E0,2.089786688E0,-1.797151379E0,6.362439320E0
1.145896913E1,5.369176537E0,2.563683051E0,-1.105170244E0,6.051605468E0
1.146897313E1,4.621925181E0,2.688776629E0,-1.419132687E0,5.532237316E0
1.147897712E1,3.728532609E0,2.608284443E0,-2.778086416E0,5.331310091E0
1.148898012E1,3.100765304E0,2.628175501E0,-4.298167773E0,5.915766911E0
1.149898413E1,2.304124564E0,2.594232414E0,-6.485512916E0,7.355332053E0
1.150898813E1,1.684503307E0,2.561367554E0,-8.129471045E0,8.688294114E0
1.151899112E1,2.127530757E0,2.810173597E0,-6.989397894E0,7.827844256E0
1.152899513E1,2.663712539E0,2.750554801E0,-4.958897295E0,6.265108027E0
1.153899913E1,2.868048460E0,1.843477407E0,-3.430480439E0,4.836559414E0
1.154900213E1,2.848516421E0,6.254749042E-1,-1.879967248E0,3.469804247E0
1.155900612E1,2.956529112E0,-1.974382532E-1,-1.065624209E0,3.148904763E0
1.156901013E1,3.016850451E0,-2.665839171E-1,-1.390394500E0,3.332514140E0
1.157901413E1,3.186649208E0,1.049756473E-1,-1.721955016E0,3.623655908E0
1.158901712E1,3.483207414E0,5.553252733E-1,-1.616100532E0,3.879806822E0
1.159902113E1,3.804356963E0,1.260077897E0,-9.547751793E-1,4.119772306E0
1.160902513E1,3.894135112E0,1.928822197E0,-2.517276040E-1,4.352931211E0
1.161902813E1,3.729737136E0,2.250048344E0,1.218790707E-1,4.357580884E0
1.162903212E1,3.630612797E0,2.057735175E0,4.046173829E-1,4.192772181E0
1.163903613E1,3.753820063E0,1.968406677E0,6.354581478E-1,4.285976781E0
1.164903913E1,4.391831105E0,1.907164695E0,4.059642890E-1,4.805233047E0
1.165904312E1,5.088548192E0,1.877581877E0,2.896681398E-2,5.423972298E0
1.166904713E1,5.638623251E0,1.822064903E0,-2.728278664E-1,5.931983456E0
1.167905013E1,6.136218964E0,1.431649822E0,-1.718362194E-1,6.303358793E0
1.168905413E1,7.023355014E0,2.603589714E-1,4.649442762E-2,7.028332959E0
1.169905812E1,8.456918045E0,-1.270509914E0,3.300457951E-1,8.558188389E0
1.170906113E1,1.022976226E1,-2.680443762E0,1.380927565E0,1.066488516E1
1.171906513E1,1.189163333E1,-3.506524941E0,2.810986944E0,1.271252564E1
1.172906912E1,1.237227095E1,-3.249155066E0,1.315257778E0,1.285923793E1
1.173907212E1,1.157441486E1,-2.245701524E0,-3.706200046E0,1.235905229E1
1.174907613E1,9.635478739E0,-1.576366071E0,-1.381760209E1,1.691902798E1
1.175908013E1,7.109921288E0,-1.473479049E0,-1.412704960E1,1.588381729E1
1.176908312E1,5.532526692E0,-1.326430930E0,-2.602126155E0,6.256143472E0
1.177908679E1,4.658255978E0,-1.612191376E0,1.433502805E0,5.133560176E0
1.178909079E1,3.983924956E0,-2.374502821E0,1.562591054E0,4.894038465E0
1.179909479E1,3.390246041E0,-3.326483324E0,8.363014539E-1,4.822723260E0
1.180909779E1,3.044757457E0,-4.300549929E0,5.237992792E-1,5.295247241E0
1.181910179E1,2.922305067E0,-5.142621489E0,6.888685890E-1,5.954910798E0
1.182910579E1,2.671976117E0,-6.207126979E0,9.485622203E-1,6.824049530E0
1.183910879E1,2.218979456E0,-7.215465285E0,1.153663250E0,7.636605790E0
1.184911279E1,1.474416357E0,-8.318581109E0,1.045251778E0,8.512652145E0
1.185911679E1,2.078410345E-1,-9.614094302E0,4.616049679E-1,9.627413271E0
1.186911979E1,-1.115445263E0,-1.066838880E1,-5.159770203E-1,1.073894641E1
1.187912379E1,-1.639817131E0,-9.483747001E0,-1.092168083E0,9.686242230E0
1.188912779E1,-1.690635282E0,-6.980365115E0,1.242083091E-1,7.183256400E0
1.189913079E1,-2.072681243E0,-5.372138152E0,1.263078103E0,5.895018418E0
1.190913479E1,-2.885320843E0,-4.381333306E0,2.180447767E0,5.681153965E0
1.191913879E1,-3.968187760E0,-3.804813631E0,3.101822773E0,6.312244084E0
1.192914179E1,-4.659800520E0,-2.909544688E0,3.983766496E0,6.785984576E0
1.193914579E1,-4.658599502E0,-1.682688332E0,4.317828451E0,6.570968869E0
1.194914979E1,-4.512746555E0,-6.109819955E-1,4.139693027E0,6.154286215E0
1.195915279E1,-4.152456914E0,5.780241644E-1,3.015721353E0,5.164454050E0
1.196915679E1,-3.807855352E0,1.588227732E0,1.372040967E0,4.347956546E0
1.197916079E1,-4.024625670E0,1.893317903E0,1.021743706E0,4.563575864E0
1.198916379E1,-4.500673808E0,1.853466790E0,1.618953681E0,5.129562836E0
1.199916779E1,-4.944809598E0,1.764230093E0,2.288877364E0,5.727356229E0
1.200917179E1,-5.129871050E0,1.833204433E0,3.041169605E0,6.238984537E0
1.201917479E1,-5.180197451E0,1.987877905E0,3.848206987E0,6.752392258E0
1.202917879E1,-5.373366652E0,2.099860856E0,4.675021992E0,7.425517855E0
1.203918279E1,-5.529175653E0,2.275054547E0,5.377022331E0,8.041145797E0
1.204918679E1,-5.904983220E0,2.274198514E0,5.700827100E0,8.517055555E0
1.205918979E1,-6.411159137E0,2.013976368E0,5.757579006E0,8.849224729E0
1.206919379E1,-7.010526808E0,1.603344539E0,5.845700054E0,9.267707859E0
1.207919779E1,-7.719750797E0,1.294860059E0,5.985998147E0,9.854105173E0
1.208920079E1,-8.299096432E0,1.196363711E0,6.080930032E0,1.035779889E1
1.209920479E1,-8.794690059E0,1.199325326E0,6.020072211E0,1.072502792E1
1.210920879E1,-9.272401730E0,1.250012500E0,5.759061860E0,1.098666276E1
1.211921179E1,-9.760127928E0,1.332261774E0,5.204807796E0,1.114114190E1
1.212921579E1,-1.007976714E1,1.546450546E0,4.488408104E0,1.114176926E1
1.213921979E1,-1.019742715E1,1.839595440E0,3.797095306E0,1.103583095E1
1.214922279E1,-1.000711198E1,2.215909960E0,3.072370348E0,1.070009377E1
1.215922679E1,-9.761334794E0,2.460612427E0,2.246151906E0,1.031423622E1
1.216923079E1,-9.952151660E0,2.221669468E0,8.795827635E-1,1.023497942E1
1.217923379E1,-1.015579030E1,1.466377605E0,-2.362035242E0,1.052946107E1
1.218923779E1,-9.507681994E0,4.672510028E-2,-9.004043183E0,1.309469334E1
1.219924179E1,-8.160037950E0,-3.407381891E0,-2.631530984E1,2.776134008E1
1.220924579E1,3.023536742E0,-6.235142158E0,-4.136882621E1,4.194518511E1
1.221924879E1,1.790354166E1,-2.628119953E0,3.342966624E0,1.840160983E1
1.222925279E1,2.061432604E1,-8.550009227E-1,3.463484756E0,2.092073592E1
1.223925679E1,2.623772431E1,-2.005615434E0,-1.914022894E0,2.638378581E1
1.224925979E1,2.729565870E1,-5.401720970E0,5.378654142E-1,2.783021510E1
1.225926379E1,2.491476370E1,-6.489234084E0,-1.174353695E0,2.577275142E1
1.226926779E1,1.774164278E1,-4.278497155E0,-1.008996629E0,1.827811535E1
1.227927079E1,7.152043460E0,2.081608772E-4,-7.419018117E-1,7.190420293E0
1.228927479E1,-1.945848119E-1,4.251893494E0,-2.640441206E0,5.008831330E0
1.229927879E1,-3.012724655E0,4.713604844E0,-2.251192060E0,6.030128205E0
1.230928179E1,-3.346898292E0,1.420364696E-1,-1.747393620E0,3.778265078E0
1.231928579E1,-5.333188094E0,-6.586557480E0,-8.791860006E0,1.221156980E1
1.232928979E1,-7.697470567E0,-1.339104653E1,-1.822344984E1,2.388860198E1
1.233929279E1,-9.528008670E-1,-1.526090307E1,-4.183810269E0,1.585267360E1
1.234929679E1,3.903542113E0,-1.536130444E1,7.056645552E0,1.734945422E1
1.235930079E1,3.571995045E0,-1.411116272E1,7.968116544E0,1.659442506E1
1.236930379E1,2.713341951E-1,-7.940135279E0,8.252236261E0,1.145507633E1
1.237930779E1,-2.930474212E0,-3.261360544E0,7.754923553E0,8.908590855E0
1.238931179E1,-4.679368812E0,-1.436052775E-1,7.603329810E0,8.929039095E0
1.239931479E1,-5.769192746E0,2.201881320E0,8.284695325E0,1.033286228E1
1.240931879E1,-6.379800519E0,3.261278683E0,7.836054840E0,1.061798233E1
1.241932279E1,-6.868047119E0,3.812272924E0,7.329101243E0,1.074333380E1
1.242932679E1,-7.346603129E0,4.311668994E0,7.678030329E0,1.146800841E1
1.243932979E1,-7.635154451E0,4.381319858E0,7.696633830E0,1.169314840E1
1.244933379E1,-7.654140360E0,4.212732936E0,7.265697545E0,1.136324532E1
1.245933779E1,-6.806725615E0,3.959689416E0,6.441734812E0,1.017381940E1
1.246934079E1,-4.746963210E0,3.147067943E0,4.772295102E0,7.430511213E0
1.247934479E1,-3.650637757E0,1.282106112E0,3.827797866E0,5.442700489E0
1.248934879E1,-3.118974996E0,-9.307399070E-1,3.901138322E0,5.080665508E0
1.249935179E1,-2.779876249E0,-3.169839925E0,4.194100199E0,5.946938169E0
1.250935579E1,-2.348248238E0,-4.869910274E0,4.474071901E0,7.017664515E0
1.251935979E1,-2.136387243E0,-5.377229322E0,4.587547061E0,7.384059430E0
1.252936279E1,-2.241714892E0,-4.486084421E0,4.349757172E0,6.638571122E0
1.253936679E1,-2.243850880E0,-3.239544582E0,4.209181337E0,5.765997173E0
1.254937079E1,-2.064451580E0,-2.148365849E0,3.902750984E0,4.910081607E0
1.255937379E1,-1.634012893E0,-1.121486607E0,3.410328888E0,3.944372379E0
1.256937779E1,-9.307165182E-1,-1.635939842E-1,3.097998109E0,3.238917800E0
1.257938179E1,-1.516846678E-1,5.437396002E-1,2.885572858E0,2.940270686E0
1.258938479E1,7.318038896E-1,1.146155425E0,2.430222693E0,2.784814451E0
1.259938879E1,1.755544931E0,1.600877014E0,1.623576344E0,2.877628427E0
1.260939279E1,2.538816013E0,1.616884351E0,8.040903854E-1,3.115519716E0
1.261939579E1,3.104073074E0,1.066498221E0,5.752768502E-2,3.282681456E0
1.262939979E1,3.731492762E0,7.038129759E-1,-8.024575505E-1,3.881150482E0
1.263940379E1,4.375575553E0,7.433992106E-1,-1.500289848E0,4.684994497E0
1.264940779E1,4.903837281E0,1.101135957E0,-1.937332234E0,5.386406656E0
1.265941079E1,5.333678091E0,1.724205317E0,-2.029434359E0,5.961510695E0
1.266941479E1,5.392123350E0,2.034911154E0,-2.350183959E0,6.224084050E0
1.267941879E1,4.679164159E0,2.052138221E0,-3.640168317E0,6.273489769E0
1.268942179E1,2.887190198E0,1.741773861E0,-9.698195390E0,1.026765003E1
1.269942579E1,1.483552047E0,1.506287191E0,-1.506291167E1,1.521056001E1
1.270942979E1,2.421255111E0,2.486789242E0,-1.050408321E1,1.106265615E1
1.271943279E1,3.642197301E0,3.238264627E0,-5.323127375E0,7.217177012E0
1.272943679E1,3.484869193E0,2.768582352E0,-3.245772159E0,5.508574992E0
1.273944079E1,3.379912257E0,1.914350923E0,-1.408511220E0,4.131882159E0
1.274944379E1,3.798144881E0,1.096245346E0,-1.104401627E-1,3.954725708E0
1.275944779E1,4.603668711E0,7.424081075E-1,-4.295753458E-1,4.682891242E0
1.276945179E1,5.174539685E0,6.300819254E-1,-9.163776836E-1,5.292694233E0
1.277945567E1,5.281506894E0,6.619147521E-1,-8.757693556E-1,5.394387655E0
1.278945967E1,5.288023615E0,1.202005690E0,-7.629563928E-1,5.476323027E0
1.279946367E1,5.176552881E0,2.048817002E0,-9.298221865E-1,5.644370659E0
1.280946767E1,4.991946343E0,2.549480749E0,-1.221576028E0,5.736865727E0
1.281947067E1,4.786657033E0,2.525673811E0,-1.424767649E0,5.596523618E0
1.282947467E1,4.628886876E0,2.376163430E0,-1.320548632E0,5.368109075E0
1.283947867E1,4.777966024E0,2.241658174E0,-1.036755774E0,5.378554939E0
1.284948167E1,5.355668299E0,2.226411560E0,-8.216171220E-1,5.857913115E0
1.285948567E1,6.120075971E0,2.037994391E0,-6.312621859E-1,6.481299482E0
1.286948967E1,6.811182362E0,1.765977826E0,-1.257823795E-1,7.037521159E0
1.287949267E1,7.620093192E0,1.203104966E0,4.893192717E-1,7.729988045E0
1.288949667E1,8.657621384E0,8.170255959E-2,9.480634528E-1,8.709759333E0
1.289950067E1,9.772570803E0,-1.289964770E0,1.368435866E0,9.951872484E0
1.290950367E1,1.066447233E1,-2.211772470E0,2.038861825E0,1.108060762E1
1.291950767E1,1.114048481E1,-2.552220755E0,2.578798689E0,1.171641733E1
1.292951167E1,9.775234795E0,-2.602610305E0,-3.154599157E-1,1.012068726E1
1.293951467E1,6.325474039E0,-3.310159067E0,-1.440228272E1,1.607465466E1
1.294951867E1,3.644596706E0,-4.651442510E0,-2.404722167E1,2.476263057E1
1.295952267E1,3.756788110E0,-3.704977686E0,-4.463270924E0,6.910940883E0
1.296952567E1,3.696884262E0,-3.070352474E0,1.737690604E0,5.110145418E0
1.297952967E1,3.268585071E0,-3.213118091E0,1.609659532E0,4.857857557E0
1.298953367E1,2.522927666E0,-3.828758563E0,1.212056469E0,4.742745727E0
1.299953767E1,2.350676294E0,-4.682467251E0,8.402882317E-1,5.306341764E0
1.300954067E1,2.427699327E0,-6.053003730E0,7.010350368E-1,6.559270409E0
1.301954467E1,2.473093016E0,-7.614189844E0,7.345552969E-1,8.039381041E0
1.302954867E1,2.284803025E0,-9.162821401E0,2.590257696E-1,9.446942110E0
1.303955167E1,1.468374429E0,-1.069678054E1,-9.732064801E-1,1.084086566E1
1.304955567E1,-8.729308248E-3,-1.229861006E1,-3.146165718E0,1.269465417E1
1.305955967E1,-1.193025536E0,-1.191048125E1,-4.008648153E0,1.262347549E1
1.306956267E1,-1.147347087E0,-8.559126790E0,-1.066887061E0,8.701339250E0
1.307956667E1,-1.280157235E0,-6.153380542E0,1.269942734E0,6.412148562E0
1.308957067E1,-1.941358627E0,-4.742200652E0,2.441886134E0,5.676279436E0
1.309957367E1,-2.951769771E0,-3.851324138E0,3.117004484E0,5.767266194E0
1.310957767E1,-3.795090880E0,-2.960004990E0,3.695791125E0,6.068213606E0
1.311958167E1,-4.230837670E0,-1.864045572E0,3.770159522E0,5.965631241E0
1.312958467E1,-4.240342904E0,-6.291738528E-1,3.314884787E0,5.418932443E0
1.313958867E1,-4.125325833E0,4.639520037E-1,2.313577173E0,4.752494505E0
1.314959267E1,-4.189334133E0,1.146598644E0,1.471935968E0,4.586044529E0
1.315959567E1,-4.238164231E0,1.567328614E0,1.216368279E0,4.679541305E0
1.316959967E1,-4.303963534E0,1.779401863E0,1.309039557E0,4.837763704E0
1.317960367E1,-4.667391375E0,1.599789432E0,2.067676027E0,5.349687152E0
1.318960767E1,-4.916680983E0,1.546720102E0,2.659842267E0,5.800073779E0
1.319961067E1,-4.986292670E0,1.689730133E0,3.634962541E0,6.397753917E0
1.320961467E1,-5.035218077E0,1.989044425E0,4.727330014E0,7.187306023E0
1.321961867E1,-5.429983487E0,2.209124267E0,5.979981362E0,8.374074741E0
1.322962167E1,-5.716785906E0,3.059119388E0,6.043689115E0,8.863748115E0
1.323962567E1,-6.441820182E0,3.109669737E0,5.983451099E0,9.325705345E0
1.324962967E1,-7.538619259E0,2.332478297E0,5.741033725E0,9.758622012E0
1.325963267E1,-8.183276539E0,2.304476566E0,5.056745771E0,9.891779665E0
1.326963667E1,-8.655678939E0,2.621297421E0,5.052643365E0,1.035959377E1
1.327964067E1,-9.200533603E0,2.624895798E0,5.279772025E0,1.092775774E1
1.328964367E1,-9.729377421E0,2.400204842E0,5.577973591E0,1.146889522E1
1.329964767E1,-1.013985781E1,2.249983440E0,5.745430831E0,1.186967216E1
1.330965167E1,-1.025555549E1,2.201377290E0,5.712454873E0,1.194381100E1
1.331965467E1,-1.013335336E1,2.265204912E0,5.309393435E0,1.166214656E1
1.332965867E1,-9.468526699E0,2.670409355E0,4.979101764E0,1.102612980E1
1.333966267E1,-8.522627301E0,3.002215455E0,4.632497531E0,1.015423592E1
1.334966567E1,-8.022958165E0,2.941317873E0,3.641096270E0,9.288530056E0
1.335966967E1,-7.409626758E0,2.526711107E0,1.667908909E0,8.004296212E0
1.336967367E1,-7.016027868E0,1.119884470E0,-3.171440892E0,7.780541473E0
1.337967667E1,-8.346423796E0,-3.051253129E0,-1.987027486E1,2.176696485E1
1.338968067E1,-2.302949274E-1,-9.074239007E0,-4.682920411E1,4.770083025E1
1.339968467E1,1.718048199E1,-6.012441595E0,-8.053193532E0,1.990407851E1
1.340968867E1,1.766967759E1,-2.168792512E0,-9.840267527E-1,1.782945529E1
1.341969167E1,2.243948763E1,-2.200013720E0,-8.904463931E0,2.424170256E1
1.342969567E1,2.369245005E1,-5.515934048E0,-3.415239379E0,2.456464080E1
1.343969967E1,2.010802499E1,-7.414311547E0,-4.996669431E-1,2.143721884E1
1.344970267E1,1.398921787E1,-5.972869393E0,6.969433746E-1,1.522692074E1
1.345970667E1,5.377029932E0,-2.880903271E0,5.974836981E-1,6.129358965E0
1.346971067E1,-3.770822597E-1,-7.072821289E-1,-4.986540592E-1,9.439782366E-1
1.347971367E1,-1.459767328E0,-2.064522623E0,1.040126109E-1,2.530611179E0
1.348971767E1,-2.685477630E0,-4.333629967E0,-7.459094203E-1,5.152525561E0
1.349972167E1,-5.506028280E0,-7.312595138E0,-6.566282845E0,1.126527698E1
1.350972467E1,-7.328001382E0,-1.139759272E1,-1.196001184E1,1.807336735E1
1.351972867E1,-2.573019301E0,-1.207260582E1,-7.835562066E-1,1.236859734E1
1.352973267E1,4.254732317E-1,-1.151189760E1,7.892837151E0,1.396430063E1
1.353973567E1,-1.173944317E0,-1.026898538E1,9.293702552E0,1.389975227E1
1.354973967E1,-4.208216547E0,-6.607390525E0,8.835932225E0,1.180848823E1
1.355974367E1,-5.918853400E0,-2.862496821E0,7.807229236E0,1.020683800E1
1.356974667E1,-6.833495922E0,-1.988076711E-1,6.992761213E0,9.779309811E0
1.357975067E1,-7.277262168E0,1.796593847E0,6.353968105E0,9.826454335E0
1.358975467E1,-7.678037930E0,3.154598572E0,6.307870996E0,1.042559327E1
1.359975767E1,-8.006422824E0,3.841300256E0,6.427750611E0,1.096240722E1
1.360976167E1,-7.941663741E0,4.082279801E0,6.107524338E0,1.081835870E1
1.361976567E1,-7.602204806E0,3.776109064E0,5.601937820E0,1.017026179E1
1.362976867E1,-6.729625399E0,2.931763523E0,5.569436656E0,9.214212936E0
1.363977267E1,-4.985307999E0,1.667497265E0,5.048317595E0,7.288302512E0
1.364977667E1,-3.326328080E0,4.575095415E-2,4.514722914E0,5.607965284E0
1.365977967E1,-2.183111174E0,-1.803963093E0,4.324712963E0,5.169468004E0
1.366978367E1,-1.597756062E0,-3.357862991E0,4.250902390E0,5.647852639E0
1.367978767E1,-1.192976127E0,-4.059060507E0,4.379800751E0,6.089484285E0
1.368979067E1,-9.952358651E-1,-3.867785804E0,4.443568731E0,5.974576514E0
1.369979467E1,-8.423691827E-1,-3.016375072E0,4.260445631E0,5.287674479E0
1.370979867E1,-9.484692496E-1,-1.818353090E0,4.145974690E0,4.625484624E0
1.371980167E1,-1.005250976E0,-6.413740683E-1,3.998830093E0,4.172832651E0
1.372980567E1,-6.348541304E-1,3.961172855E-1,3.765698681E0,3.839327445E0
1.373980967E1,-3.941669467E-1,1.167231714E0,3.800208948E0,3.994919962E0
1.374981367E1,2.059301645E-2,1.842160029E0,3.354660471E0,3.827234579E0
1.375981667E1,7.998213333E-1,2.558675496E0,1.970828009E0,3.327265770E0
1.376982067E1,1.846944805E0,2.950259435E0,7.456268536E-1,3.559662239E0
1.377982417E1,2.958466295E0,2.908241343E0,-9.697139382E-2,4.149673961E0
1.378982717E1,4.113127956E0,2.590782557E0,-8.100890440E-1,4.928105123E0
1.379983117E1,5.320568633E0,1.907137213E0,-1.416773336E0,5.826909096E0
1.380983517E1,6.484262781E0,1.158987724E0,-1.564886963E0,6.770360963E0
1.381983817E1,7.558404483E0,7.217387849E-1,-1.350053243E0,7.711875839E0
1.382984217E1,8.810603256E0,5.254992110E-1,1.492379004E-1,8.827522365E0
1.383984617E1,1.066443959E1,9.775801975E-1,2.280719329E0,1.094932032E1
1.384984917E1,1.149545056E1,2.353952197E0,-2.427149981E-2,1.173401310E1
1.385985317E1,1.069423232E1,3.720827733E0,-4.296556281E0,1.211080344E1
1.386985717E1,8.589566810E0,4.858577201E0,-9.124667149E0,1.344046059E1
1.387986017E1,5.224561445E0,5.630127831E0,-1.511117693E1,1.695116662E1
1.388986417E1,3.256335739E0,5.215150936E0,-1.305461061E1,1.442998198E1
1.389986817E1,2.801270626E0,4.100337172E0,-6.562549982E0,8.229638164E0
1.390987117E1,2.003919157E0,2.643419777E0,-3.896813137E0,5.117471322E0
1.391987517E1,1.694910036E0,2.091636747E0,-3.606610269E0,4.500589066E0
1.392987917E1,1.790011928E0,2.008750711E0,-2.642688875E0,3.771342813E0
1.393988217E1,2.046536296E0,1.905497653E0,-1.759236717E0,3.303656450E0
1.394988617E1,2.303909094E0,1.623964160E0,-1.203828413E0,3.065038263E0
1.395989017E1,2.584012651E0,1.227166259E0,-5.158619763E-1,2.906745944E0
1.396989317E1,2.691478627E0,8.278055227E-1,6.558690235E-1,2.891277116E0
1.397989717E1,2.436132474E0,5.612958652E-1,2.013206728E0,3.209796848E0
1.398990117E1,2.235391860E0,6.057785583E-1,3.042245493E0,3.823506515E0
1.399990417E1,2.225241093E0,9.325963980E-1,3.562728670E0,4.302844355E0
1.400990817E1,2.011666718E0,1.099366590E0,3.444861666E0,4.137932066E0
1.401991217E1,1.679189358E0,8.363991755E-1,2.943786567E0,3.490719100E0
1.402991517E1,1.577143896E0,6.208205205E-1,1.944707035E0,2.579667894E0
1.403991917E1,1.780846418E0,5.392202872E-1,4.131271282E-1,1.906002756E0
1.404992317E1,2.293106948E0,5.335555047E-1,-7.785541329E-1,2.479751497E0
1.405992617E1,2.804660257E0,4.116971916E-1,-1.162783152E0,3.063931852E0
1.406993017E1,3.272143102E0,2.006290787E-1,-6.929868561E-1,3.350731754E0
1.407993417E1,3.985388514E0,-1.691605335E-1,2.237817138E-2,3.989039693E0
1.408993717E1,5.216057839E0,-8.663474447E-1,2.539992473E-1,5.293612462E0
1.409994117E1,7.124769123E0,-1.673306474E0,9.941172928E-2,7.319301353E0
1.410994517E1,8.877953825E0,-2.267502868E0,5.696766794E-2,9.163126033E0
1.411994817E1,1.053565116E1,-2.503278390E0,1.018316287E0,1.087673278E1
1.412995217E1,1.166726046E1,-2.206902909E0,-8.314911397E0,1.449596974E1
1.413995617E1,1.143642408E1,-1.912579801E0,-2.515836572E1,2.770186137E1
1.414995917E1,9.423300825E0,-1.597731212E0,-1.063522339E1,1.429892723E1
1.415996317E1,6.623708349E0,-1.695285573E0,6.465412527E-2,6.837520430E0
1.416996717E1,5.196818161E0,-1.784207690E0,1.678643228E0,5.745272767E0
1.417997017E1,3.964221593E0,-2.226928453E0,1.587842985E0,4.816171563E0
1.418997417E1,2.948752023E0,-3.139658352E0,8.979102762E-1,4.399867716E0
1.419997817E1,2.358482620E0,-4.005501181E0,8.033191377E-1,4.717181533E0
1.420998117E1,2.180918760E0,-4.999171747E0,7.674348483E-1,5.507910769E0
1.421998517E1,2.193812163E0,-6.058493680E0,6.945520826E-1,6.480783909E0
1.422998917E1,2.034636627E0,-7.335593407E0,1.085931954E0,7.689598497E0
1.423999217E1,1.681508656E0,-8.756638134E0,1.348354481E0,9.017995485E0
1.424999617E1,1.117347947E0,-1.019849135E1,8.330229932E-1,1.029328031E1
1.426000017E1,4.974460244E-1,-1.138487737E1,-8.123951858E-1,1.142466066E1
1.427000317E1,1.328382146E-1,-1.142824500E1,-2.631563378E0,1.172806700E1
1.428000717E1,-5.293425858E-2,-9.480930982E0,-1.578269924E0,9.611544635E0
1.429001117E1,-6.354654568E-1,-7.307861232E0,9.274385691E-1,7.393834894E0
1.430001417E1,-1.685735900E0,-5.906576586E0,2.135895492E0,6.503183993E0
1.431001817E1,-2.887467940E0,-4.726359376E0,2.971149198E0,6.285194636E0
1.432002217E1,-4.032917606E0,-3.600472739E0,3.832965635E0,6.627175411E0
1.433002517E1,-4.692706311E0,-2.320703759E0,4.116260895E0,6.659636793E0
1.434002917E1,-4.993065500E0,-1.166610155E0,4.152118360E0,6.597860957E0
1.435003317E1,-5.119847753E0,-2.507245141E-1,4.113153684E0,6.572194232E0
1.436003617E1,-5.012546083E0,8.168870169E-1,3.503285583E0,6.169759518E0
1.437004017E1,-4.916367572E0,1.665677612E0,2.545954878E0,5.781612081E0
1.438004417E1,-5.138061830E0,2.176891490E0,2.020374391E0,5.934681845E0
1.439004717E1,-5.268033155E0,2.682899593E0,2.062669495E0,6.261367980E0
1.440005117E1,-5.574744759E0,2.941604387E0,2.513981134E0,6.786082569E0
1.441005517E1,-5.947362669E0,2.968353059E0,3.121044910E0,7.343239335E0
1.442005817E1,-5.951452796E0,3.266899027E0,4.062491069E0,7.911779403E0
1.443006217E1,-6.098204461E0,3.617841893E0,4.876995345E0,8.605925936E0
1.444006617E1,-6.287251959E0,3.978392905E0,5.283563944E0,9.125414799E0
1.445006917E1,-6.717054470E0,3.998872193E0,5.381198412E0,9.490368587E0
1.446007317E1,-7.339226282E0,3.610028259E0,5.445373943E0,9.825916946E0
1.447007717E1,-7.845769989E0,3.175319935E0,5.702283057E0,1.020562568E1
1.448008017E1,-8.214083179E0,2.866831362E0,6.142008877E0,1.064960833E1
1.449008417E1,-8.566110705E0,2.580290898E0,6.582172068E0,1.110680615E1
1.450008817E1,-9.056715487E0,2.183852600E0,6.820853072E0,1.154631301E1
1.451009117E1,-9.569763637E0,1.835364395E0,6.815923870E0,1.189141525E1
1.452009517E1,-9.946274039E0,1.596257129E0,6.549463913E0,1.201548508E1
1.453009917E1,-1.010334311E1,1.560769207E0,5.872504860E0,1.178982001E1
1.454010217E1,-9.715313113E0,1.838877402E0,5.265308937E0,1.120233267E1
1.455010617E1,-9.025630519E0,2.148022617E0,4.500833437E0,1.031181405E1
1.456011017E1,-8.462446003E0,2.274149398E0,3.109672076E0,9.298107778E0
1.457011317E1,-7.804285163E0,2.030902303E0,1.359647355E0,8.178023722E0
1.458011717E1,-7.128883224E0,9.927168846E-1,-1.210889218E0,7.298816036E0
1.459012117E1,-8.739754883E0,-2.992334245E0,-1.353020208E1,1.638303232E1
1.460012417E1,-5.982806152E0,-1.362325350E1,-5.431489846E1,5.631602969E1
1.461012817E1,1.810696395E1,-1.042762736E1,-1.437900496E1,2.536441088E1
1.462013217E1,2.218950279E1,-3.369504797E0,-1.052242709E0,2.246852935E1
1.463013517E1,2.577518850E1,-3.876143230E0,-6.362567021E0,2.683033894E1
1.464013917E1,2.562293402E1,-7.172884691E0,2.036226485E0,2.668578725E1
1.465014317E1,2.192602491E1,-7.332057595E0,1.727129509E0,2.318388693E1
1.466014617E1,1.573746986E1,-3.871480660E0,1.313820240E0,1.625984144E1
1.467015017E1,6.857756605E0,1.416970387E0,3.348770571E-1,7.010618615E0
1.468015417E1,-7.081095099E-2,5.856850694E0,-2.248890595E0,6.274171113E0
1.469015717E1,-3.214213275E0,7.244048229E0,-2.161823215E0,8.214674755E0
1.470016117E1,-3.895046693E0,5.259644154E0,-1.624160042E0,6.743377582E0
1.471016517E1,-4.828070523E0,-8.422154009E-2,-5.285319278E0,7.159047291E0
1.472016817E1,-8.991207376E0,-7.005022824E0,-1.774271867E1,2.108829582E1
1.473017217E1,-4.685289118E0,-1.143005062E1,-7.717412496E0,1.456559120E1
1.474017617E1,1.941727002E0,-1.442076343E1,5.863153993E0,1.568774351E1
1.475017917E1,4.818870513E0,-1.707147819E1,7.882852446E0,1.941124013E1
1.476018317E1,3.755302917E0,-1.361834769E1,8.199355212E0,1.633374175E1
1.477018717E1,2.165949011E-1,-6.472221025E0,7.543998113E0,9.942256579E0
1.478018942E1,-2.049133921E0,-1.680209112E0,6.606095366E0,7.117762884E0
1.479019342E1,-3.922773605E0,1.573394516E0,7.483272439E0,8.594363819E0
1.480019742E1,-5.687623503E0,3.620511147E0,8.393892077E0,1.076636365E1
1.481020042E1,-6.637680856E0,4.635991827E0,7.584988264E0,1.109429017E1
1.482020442E1,-6.941219761E0,4.838158139E0,6.056659409E0,1.040535579E1
1.483020842E1,-7.073257492E0,4.736547564E0,5.181418934E0,9.965588620E0
1.484021142E1,-7.162776024E0,4.551410683E0,4.843541086E0,9.771416982E0
1.485021542E1,-7.100152345E0,4.134514732E0,4.692885236E0,9.462005455E0
1.486021942E1,-5.823321006E0,3.012717054E0,4.239282219E0,7.807627381E0
1.487022242E1,-3.848583548E0,1.242601154E0,3.097736154E0,5.094273475E0
1.488022642E1,-2.596276601E0,-8.430053598E-1,2.859611805E0,3.953313787E0
1.489023042E1,-1.449839048E0,-2.846763718E0,2.867534198E0,4.292883565E0
1.490023342E1,-6.597834420E-1,-4.333970860E0,2.760397419E0,5.180580230E0
1.491023742E1,-4.526127908E-1,-4.475362381E0,2.459771597E0,5.126812177E0
1.492024142E1,-1.033946187E0,-3.496439663E0,2.923960998E0,4.673722601E0
1.493024442E1,-1.993496203E0,-2.203282313E0,3.655634787E0,4.710854037E0
1.494024842E1,-2.489798804E0,-9.771726465E-1,4.115804227E0,4.908544479E0
1.495025242E1,-2.487499679E0,7.651841819E-2,4.571393543E0,5.204915815E0
1.496025542E1,-2.284023298E0,9.522167301E-1,5.456253857E0,5.991175618E0
1.497025942E1,-1.618554024E0,1.681583793E0,5.411559495E0,5.893421531E0
1.498026342E1,-2.547137770E-1,2.505872800E0,3.836245338E0,4.589232604E0
1.499026642E1,8.113967738E-1,2.969851701E0,2.097934198E0,3.725548517E0
1.500027042E1,1.651421515E0,2.732115022E0,8.423042786E-1,3.301684723E0
1.501027442E1,2.363553617E0,2.300458360E0,-3.761981606E-2,3.298470800E0
1.502027742E1,3.038847968E0,1.608937401E0,-5.557446648E-1,3.483120536E0
1.503028142E1,3.690857245E0,1.053862973E0,-8.542390305E-1,3.932273984E0
1.504028542E1,4.098656975E0,6.379873610E-1,-8.909899503E-1,4.242626540E0
1.505028842E1,4.087810390E0,3.753824741E-1,-7.724092939E-1,4.177047031E0
1.506029242E1,3.784024732E0,4.092571485E-1,-4.656877497E-1,3.834475149E0
1.507029642E1,4.136128272E0,4.685537624E-1,1.409721301E0,4.394816703E0
1.508029942E1,4.701978825E0,8.678051555E-1,6.871621522E-1,4.830515758E0
1.509030342E1,4.786477523E0,1.456667719E0,-6.502122517E0,8.204257745E0
1.510030742E1,4.239703803E0,1.941751560E0,-2.143917638E1,2.194045969E1
1.511031042E1,3.456850505E0,2.029274438E0,-1.778187280E1,1.822807643E1
1.512031442E1,3.040900341E0,2.089427669E0,-6.403361875E0,7.390252104E0
1.513031842E1,2.727570566E0,1.656166531E0,-3.145727177E0,4.480862444E0
1.514032142E1,2.167106321E0,8.667333609E-1,-9.905466905E-1,2.535499807E0
1.515032542E1,2.083519496E0,6.909052473E-1,-7.752934331E-1,2.327978406E0
1.516032942E1,2.392238888E0,8.711842614E-1,-1.518412854E0,2.964345882E0
1.517033242E1,2.689496421E0,8.377282476E-1,-1.358369884E0,3.127354850E0
1.518033642E1,2.990347361E0,8.933095407E-1,-6.966282097E-1,3.197728903E0
1.519034042E1,3.424898980E0,1.116001918E0,1.413748571E-1,3.604910561E0
1.520034342E1,3.744186190E0,1.299812651E0,6.167523202E-1,4.011087955E0
1.521034742E1,4.048296076E0,1.191290082E0,8.483991238E-1,4.304376174E0
1.522035142E1,4.486377366E0,1.020855440E0,7.123519573E-1,4.655875107E0
1.523035442E1,4.848711486E0,9.985833961E-1,-8.792779773E-2,4.951252687E0
1.524035842E1,5.140389606E0,1.485353574E0,-9.496144268E-1,5.434302909E0
1.525036242E1,5.341769468E0,2.090152139E0,-1.224858070E0,5.865450904E0
1.526036542E1,5.594256333E0,2.316537033E0,-7.677338603E-1,6.103397662E0
1.527036942E1,6.027932623E0,2.052812405E0,2.608375660E-1,6.373228908E0
1.528037342E1,6.677053667E0,1.336116843E0,1.184822477E0,6.911733371E0
1.529037642E1,7.552177198E0,4.592754006E-2,1.533760626E0,7.706485024E0
1.530038042E1,8.700863882E0,-1.426746932E0,1.335140066E0,8.917580283E0
1.531038442E1,9.700507379E0,-2.557900155E0,8.200556231E-1,1.006554459E1
1.532038742E1,1.040909636E1,-2.869454423E0,4.085049042E-1,1.080508824E1
1.533039142E1,1.034048981E1,-2.596356708E0,5.104911625E-2,1.066158542E1
1.534039542E1,8.782096910E0,-2.567166823E0,-3.815131043E0,9.913162791E0
1.535039842E1,5.715833395E0,-3.522177937E0,-2.488295485E1,2.577281379E1
1.536040242E1,4.709630199E0,-3.444915168E0,-1.981757976E1,2.065876387E1
1.537040542E1,4.689151788E0,-2.227591528E0,-1.195878392E0,5.327328940E0
1.538040942E1,4.017637078E0,-1.817636806E0,1.466517792E0,4.647137364E0
1.539041342E1,3.447468940E0,-1.845520424E0,1.679393864E0,4.255743352E0
1.540041642E1,2.790941812E0,-2.406938496E0,1.573283418E0,4.007234687E0
1.541042042E1,2.234421660E0,-3.158909724E0,1.507726922E0,4.152660746E0
1.542042442E1,2.148575179E0,-4.101041762E0,1.577791037E0,4.891251720E0
1.543042742E1,2.187239015E0,-5.085756732E0,1.728142832E0,5.799604615E0
1.544043142E1,1.869043187E0,-6.727488826E0,1.820005513E0,7.215597578E0
1.545043542E1,1.455087801E0,-8.423033431E0,1.632981151E0,8.702378992E0
1.546043842E1,7.161260426E-1,-1.000927077E1,8.203894991E-1,1.006833535E1
1.547044242E1,-1.626479048E-1,-1.160010870E1,-1.298085383E0,1.167364561E1
1.548044642E1,-1.001581264E0,-1.162761634E1,-3.495902304E0,1.218301932E1
1.549044942E1,-1.510328786E0,-9.259736661E0,-1.608855540E0,9.519045762E0
1.550045342E1,-1.721900929E0,-6.871912714E0,1.145666013E0,7.176397269E0
1.551045742E1,-2.295027466E0,-5.313876495E0,2.587437365E0,6.340289157E0
1.552046042E1,-3.199671834E0,-4.104851807E0,3.375508718E0,6.203367417E0
1.553046442E1,-3.853951292E0,-2.899068232E0,3.860956256E0,6.177743956E0
1.554046842E1,-4.250136405E0,-1.635761502E0,4.020212191E0,6.074658939E0
1.555047142E1,-4.498880467E0,-5.393582815E-1,4.045517771E0,6.074293939E0
1.556047542E1,-4.569501969E0,4.870344722E-1,3.823159854E0,5.977800774E0
1.557047942E1,-4.465933161E0,1.375763889E0,2.962235702E0,5.532822574E0
1.558048242E1,-4.210858319E0,1.898293299E0,1.763126138E0,4.944032667E0
1.559048642E1,-4.115335865E0,1.991081595E0,1.514934053E0,4.816162413E0
1.560049042E1,-4.414459537E0,1.796054149E0,1.930046604E0,5.141822965E0
1.561049342E1,-4.629574508E0,1.646875305E0,2.756725953E0,5.634243194E0
1.562049742E1,-4.777714301E0,1.676680902E0,3.598302838E0,6.211730524E0
1.563050142E1,-4.924236755E0,1.852641163E0,4.456463596E0,6.894958642E0
1.564050442E1,-5.296214980E0,2.034867885E0,5.166291018E0,7.673404935E0
1.565050842E1,-6.116698034E0,2.144597903E0,5.483156312E0,8.489893883E0
1.566051242E1,-6.945681186E0,2.151832663E0,5.466589980E0,9.097058698E0
1.567051542E1,-7.553673500E0,2.272646663E0,5.340947349E0,9.526207262E0
1.568051942E1,-8.030153748E0,2.588948286E0,5.130369233E0,9.874548644E0
1.569052342E1,-8.508141409E0,2.799957342E0,5.028964480E0,1.027223029E1
1.570052642E1,-8.893368840E0,2.834547715E0,5.022815548E0,1.059978047E1
1.571053042E1,-9.392439805E0,2.728438293E0,5.122475492E0,1.104092642E1
1.572053442E1,-9.948197773E0,2.563258544E0,5.142475308E0,1.148834129E1
1.573053742E1,-1.030021185E1,2.415364918E0,5.055431317E0,1.172543123E1
1.574054142E1,-1.022294908E1,2.488741043E0,4.863963071E0,1.159140443E1
1.575054542E1,-9.723803855E0,2.638271304E0,4.591208003E0,1.107212842E1
1.576054842E1,-9.128025790E0,2.788341263E0,3.618504968E0,1.020731503E1
1.577055242E1,-8.692181937E0,2.806497452E0,1.917607237E0,9.333149109E0
1.578055650E1,-8.339366207E0,2.314123887E0,-4.301340473E-1,8.665172439E0
1.579056050E1,-9.115817973E0,-1.785564244E-2,-8.897387631E0,1.273820878E1
1.580056450E1,-9.811562376E0,-6.975479767E0,-4.535795109E1,4.692832622E1
1.581056750E1,1.015659956E1,-9.495978207E0,-4.285248000E1,4.505180527E1
1.582057150E1,1.932755151E1,-3.371765916E0,9.775350569E0,2.191986614E1
1.583057550E1,1.983595405E1,-6.247597897E-1,-1.911543528E0,1.993763768E1
1.584057850E1,2.590472304E1,-3.287006432E0,-1.313083638E0,2.614542552E1
1.585058250E1,2.615567150E1,-6.987663610E0,1.793951490E0,2.713235811E1
1.586058650E1,2.175846476E1,-7.425796064E0,1.451015800E0,2.303646420E1
1.587058950E1,1.200967575E1,-3.902367407E0,1.570609925E0,1.272507755E1
1.588059350E1,2.018170575E0,1.388733598E0,5.989759807E-1,2.521976547E0
1.589059750E1,-1.980250797E0,3.171461942E0,-7.927855249E-1,3.822050884E0
1.590060050E1,-2.800188307E0,-4.123971033E-1,-7.438371670E-1,2.926502974E0
1.591060450E1,-4.826453183E0,-5.013448893E0,-4.522210858E0,8.299380168E0
1.592060850E1,-1.075080180E1,-1.092194395E1,-2.059465133E1,2.567115623E1
1.593061150E1,-7.223002930E0,-1.421916313E1,-1.269771060E1,2.038598111E1
1.594061550E1,-4.118252456E-2,-1.348146671E1,4.751234601E0,1.429426007E1
1.595061950E1,1.828963448E0,-1.214864068E1,9.766521274E0,1.569456962E1
1.596062250E1,-4.808726764E-1,-8.413200168E0,8.067260764E0,1.166592782E1
1.597062650E1,-2.753949110E0,-3.698376764E0,7.216612508E0,8.563978193E0
1.598063050E1,-4.488137378E0,-9.242266935E-1,6.724839453E0,8.137630968E0
1.599063350E1,-5.283803680E0,1.276057168E0,6.488277479E0,8.464316149E0
1.600063750E1,-5.729235213E0,2.660650937E0,6.510965846E0,9.071707434E0
1.601064150E1,-6.065523788E0,3.386183395E0,6.680305889E0,9.637598434E0
1.602064450E1,-6.180937884E0,3.625924500E0,6.584610357E0,9.731824863E0
1.603064850E1,-6.295466713E0,3.392906524E0,6.740160327E0,9.827231403E0
1.604065150E1,-6.403808017E0,2.579340141E0,7.666704272E0,1.031698149E1
1.605065550E1,-6.250854211E0,1.351308494E0,9.084872754E0,1.111009118E1
1.606065950E1,-4.633207383E0,5.409341061E-1,9.013216295E0,1.014875797E1
1.607066250E1,-2.482847926E0,-1.895433426E-1,7.332375684E0,7.743655059E0
1.608066650E1,-1.300581852E0,-1.466700956E0,5.966136324E0,6.279928940E0
1.609067050E1,-8.758061931E-1,-2.731326233E0,5.113436866E0,5.862969901E0
1.610067350E1,-5.986209816E-1,-3.487728481E0,4.591747116E0,5.797131930E0
1.611067750E1,-2.152307457E-1,-3.362457148E0,3.928589830E0,5.175544455E0
1.612068150E1,5.698608667E-2,-2.592250208E0,3.080774551E0,4.026683547E0
1.613068450E1,9.754032791E-2,-1.430827703E0,2.325774465E0,2.732399841E0
1.614068850E1,-2.764183491E-2,-2.047063422E-1,1.962154834E0,1.972997808E0
1.615069250E1,-1.147048295E-1,8.112462080E-1,1.809303355E0,1.986166216E0
1.616069550E1,-2.268927249E-1,1.577768818E0,2.026823285E0,2.578535898E0
1.617069950E1,-3.316461781E-1,2.134316159E0,2.223784406E0,3.100082537E0
1.618070350E1,-1.357705933E-1,2.800172519E0,1.687712259E0,3.272273286E0
1.619070650E1,5.512529799E-1,3.099496751E0,6.949285702E-1,3.223923956E0
1.620071050E1,1.457417624E0,2.850208898E0,-6.355777234E-1,3.263696667E0
1.621071350E1,2.548508650E0,2.555632605E0,-1.435435456E0,3.884151039E0
1.622071750E1,3.636696533E0,2.192504725E0,-1.772766004E0,4.601666866E0
1.623072150E1,4.762546039E0,1.835543320E0,-1.908180064E0,5.449056360E0
1.624072450E1,5.773560616E0,1.552959666E0,-1.726835979E0,6.223154217E0
1.625072850E1,6.913810937E0,1.267493336E0,-2.250571378E-1,7.032636188E0
1.626073250E1,7.892639515E0,1.302726903E0,1.793005118E0,8.197909688E0
1.627073550E1,7.034458877E0,1.875107335E0,-7.281011403E-2,7.280449198E0
1.628073950E1,5.798282644E0,2.168298422E0,-4.961499306E0,7.933352067E0
1.629074350E1,4.429215278E0,2.365596342E0,-1.402220084E1,1.489416364E1
1.630074650E1,3.215581816E0,2.686965746E0,-1.658416072E1,1.710538330E1
1.631075050E1,3.082568477E0,2.894543656E0,-8.836922743E0,9.796520554E0
1.632075450E1,2.918669853E0,2.333875782E0,-3.524762406E0,5.137076980E0
1.633075750E1,2.465135833E0,1.784676636E0,-2.091538514E0,3.692763021E0
1.634076150E1,2.561844102E0,1.800067093E0,-1.591151340E0,3.512128888E0
1.635076550E1,2.584469611E0,1.774887228E0,-1.353900273E0,3.415077421E0
1.636076850E1,2.594815966E0,1.571174328E0,-1.224969167E0,3.271422952E0
1.637077250E1,2.722444312E0,1.315063359E0,-9.253473124E-1,3.161860578E0
1.638077550E1,2.879171326E0,1.003831857E0,-2.728266969E-1,3.061329830E0
1.639077950E1,2.883672805E0,9.627113128E-1,4.561559111E-1,3.074160070E0
1.640078350E1,2.826406052E0,1.313257738E0,6.957099044E-1,3.193310090E0
1.641078650E1,2.978646498E0,1.652652939E0,7.192817849E-1,3.481517339E0
1.642079050E1,2.991648951E0,1.623828505E0,7.770230395E-1,3.491496422E0
1.643079450E1,2.853550874E0,1.397169376E0,7.982826385E-1,3.275986878E0
1.644079750E1,2.786224279E0,1.234993926E0,9.946546519E-1,3.205868619E0
1.645080150E1,2.784303176E0,1.288310008E0,8.004846999E-1,3.170624955E0
1.646080550E1,2.742128379E0,1.410909163E0,4.670036656E-1,3.118978220E0
1.647080850E1,2.884771789E0,1.280268332E0,6.472133902E-1,3.221782186E0
1.648081250E1,3.274703305E0,7.439868557E-1,1.344505113E0,3.617304546E0
1.649081650E1,3.777077363E0,-1.660866523E-1,2.030866050E0,4.291656451E0
1.650081950E1,4.524789772E0,-1.226226026E0,2.075104037E0,5.126734781E0
1.651082350E1,5.721668916E0,-2.198670614E0,1.751280849E0,6.374843705E0
1.652082650E1,7.338014154E0,-2.985944408E0,1.519467107E0,8.066665731E0
1.653083050E1,8.815825989E0,-3.117620780E0,1.009779645E0,9.405211435E0
1.654083450E1,9.613808958E0,-2.767002434E0,2.657802173E-1,1.000761032E1
1.655083750E1,9.885840726E0,-2.510381588E0,-1.681349027E0,1.033725288E1
1.656084150E1,9.623593104E0,-2.300129746E0,-2.553791083E1,2.738775330E1
1.657084550E1,7.524418126E0,-1.920232052E0,-2.274546774E1,2.403456807E1
1.658084850E1,5.178894106E0,-1.052401754E0,-1.481870534E0,5.488573029E0
1.659085250E1,4.406524281E0,-6.271705967E-1,1.151914786E0,4.597576195E0
1.660085650E1,3.672179191E0,-6.743114340E-1,1.669195151E0,4.089719841E0
1.661085950E1,3.002204637E0,-1.253735422E0,2.354481370E0,4.016051259E0
1.662086350E1,2.819939616E0,-2.149718310E0,2.598661680E0,4.396179111E0
1.663086650E1,2.854391119E0,-3.262705404E0,2.545607554E0,5.027217225E0
1.664087050E1,3.057698222E0,-4.430342329E0,2.272047908E0,5.842914792E0
1.665087450E1,2.884228583E0,-5.812492547E0,2.205909467E0,6.853457573E0
1.666087750E1,2.370660323E0,-7.517272244E0,2.189157194E0,8.180575871E0
1.667088150E1,1.562015834E0,-9.308765565E0,1.921118490E0,9.632429914E0
1.668088550E1,4.561816388E-1,-1.072060093E1,5.411077684E-1,1.074393706E1
