"Time (s)","Linear Acceleration x (m/s^2)","Linear Acceleration y (m/s^2)","Linear Acceleration z (m/s^2)","Absolute acceleration (m/s^2)"
1.303863700E-1,-3.667730093E-2,-9.987068176E-1,-1.498284817E0,1.801004699E0
1.484876260E-1,2.170109749E-1,-1.017901421E0,-1.466425896E0,1.798227453E0
1.665919360E-1,5.545210838E-2,5.352745056E-1,-2.602473736E0,2.657529544E0
1.846922770E-1,4.003407359E-1,-7.456159592E-2,-2.464437962E0,2.497856402E0
2.027892020E-1,5.085694194E-1,-3.978624344E-1,-2.509961605E0,2.591687603E0
2.208857590E-1,5.423045754E-1,-2.240836620E0,1.780786514E0,2.913184447E0
2.389826830E-1,-7.170975804E-1,-2.379987001E0,5.305671692E-1,2.541666498E0
2.570786910E-1,-1.754796982E0,-5.255620003E0,-8.103348732E0,9.816573472E0
2.751754320E-1,-3.901904821E0,-4.233122349E0,1.250610542E1,1.376760178E1
2.932721120E-1,2.129272223E0,-2.856353521E0,8.485102654E-1,3.662311470E0
3.113692800E-1,2.020328522E0,-1.353797436E0,-2.584879398E0,3.549097961E0
3.294615030E-1,4.885857105E-1,-1.390259743E0,-1.242009163E0,1.927206504E0
3.475618460E-1,1.046515226E0,-1.397193432E0,-7.761588097E-1,1.910436103E0
3.656588300E-1,3.458922625E0,-8.581299782E-1,-5.291867733E0,6.379999756E0
3.837557540E-1,9.131563902E-1,-1.188441992E0,-5.034749508E0,5.253089716E0
4.018515180E-1,-2.161451340E0,-1.294372320E0,-1.536581516E0,2.950992096E0
4.199482590E-1,-3.901311874E0,-2.271002054E0,-1.953202724E0,4.918606058E0
4.380451220E-1,-6.255674839E0,-2.772341967E0,-3.742443085E0,7.799053014E0
4.561383230E-1,-3.365586519E0,-3.269771099E0,1.673595047E1,1.738132946E1
4.742429360E-1,-1.098741531E0,-1.770660639E0,6.691697121E0,7.008657675E0
4.923349780E-1,2.251389027E0,1.331637144E0,-4.716959000E-1,2.657914042E0
5.104316580E-1,4.304864407E0,1.613420248E0,7.921089172E0,9.158528055E0
5.285286430E-1,1.432954550E0,-2.212505341E-1,2.145792007E0,2.589736257E0
5.466247110E-1,3.127668381E0,-2.936059237E0,-6.183969021E0,7.526235858E0
5.647225510E-1,3.270942211E0,1.623910546E0,-6.349969387E0,7.325179836E0
5.828166670E-1,4.945689201E0,1.054508686E0,-8.725218773E0,1.008470490E1
6.009153000E-1,8.123800278E0,9.527888894E-1,-1.754805565E0,8.365601006E0
6.190123460E-1,8.312240601E0,3.476408958E0,-7.684957504E0,1.184218455E1
6.371065240E-1,2.874749899E0,2.698380947E0,-7.609889030E0,8.570639286E0
6.552046680E-1,-8.885394096E0,-7.458559275E-1,-6.994157314E0,1.133246513E1
6.732855400E-1,-2.933631182E0,-8.291440964E0,-9.271012306E0,1.277911790E1
6.913978440E-1,-5.059330940E0,-9.565353394E0,-6.288847923E-1,1.083920252E1
7.094944020E-1,-4.523999214E0,-8.633847237E0,2.131583691E0,9.977651829E0
7.275789960E-1,-2.675403595E0,-8.510935783E0,5.734900951E0,1.060579564E1
7.456880050E-1,-2.548371792E0,-7.204777718E0,2.769444466E0,8.128520370E0
7.637841960E-1,-1.792596817E0,-5.298137665E0,3.355433464E0,6.522468842E0
7.818778860E-1,-1.104540825E0,-6.680647850E0,5.635582924E0,8.809702664E0
7.999803020E-1,2.439889908E-1,-7.595622063E0,7.717042923E0,1.083077821E1
8.180744190E-1,1.474614143E0,-7.965553761E0,8.840152740E0,1.199053102E1
8.361706710E-1,4.026079178E-1,-5.389232635E0,5.088591576E0,7.422916257E0
8.542674730E-1,-6.934580803E-1,-3.210236788E0,-1.304372072E0,3.533820998E0
8.723642140E-1,-1.614903450E0,-3.269875050E0,-2.885206699E0,4.650205769E0
8.904492360E-1,2.194932461E0,-3.996230602E0,-4.486432076E-1,4.581360962E0
9.085572670E-1,6.917005539E0,-4.550145149E0,5.320344925E0,9.841486505E0
9.266537030E-1,9.967885971E0,-4.748065948E0,8.835386276E0,1.414096643E1
9.447463550E-1,1.094807053E1,-1.817789078E0,1.012512970E1,1.502274465E1
9.628513960E-1,9.939354897E0,2.945008278E-1,7.295119286E0,1.233273173E1
9.809402640E-1,9.162583351E0,2.323239803E0,3.684072495E0,1.014508585E1
9.990431070E-1,8.144817352E0,3.436742306E0,1.578521371E0,8.980032132E0
1.017125078E0,8.144536972E0,2.870659351E0,-9.835027456E-1,8.691458177E0
1.035233843E0,7.128187656E0,1.707782745E0,4.363000393E-1,7.342883554E0
1.053330095E0,7.470214367E0,4.385614395E-1,2.900614262E0,8.025584210E0
1.071427141E0,7.385764599E0,1.177001476E0,4.311005592E0,8.632474755E0
1.089509172E0,6.258069515E0,8.495693207E-1,3.501779795E0,7.221333936E0
1.107623246E0,4.975709915E0,-2.783393860E-2,3.466750383E-1,4.987849985E0
1.125719255E0,4.324971199E0,-1.740579605E0,-2.299626350E0,5.198391538E0
1.143807756E0,3.160588264E0,-1.829887867E0,-3.261281967E0,4.896301446E0
1.161912736E0,2.196080208E0,-2.678974152E0,-1.813313246E0,3.909958531E0
1.180006731E0,1.132964134E0,-2.049649239E0,-3.015453100E0,3.818065889E0
1.198102678E0,-2.358730078E0,-9.502482414E-1,-1.158659744E1,1.186236990E1
1.216187823E0,-5.076974392E0,-1.449933052E0,-9.032201767E0,1.046224850E1
1.234296464E0,-6.659097672E-1,-7.176957130E-1,-2.002729893E0,2.229226318E0
1.252393511E0,2.635781288E0,-2.634301186E-1,2.318628788E0,3.520337751E0
1.270489640E0,2.791868210E0,1.033987999E-1,4.709811211E0,5.476088116E0
1.288586137E0,5.763853073E0,1.849905968E0,4.325062275E0,7.439779434E0
1.306682940E0,3.564169884E0,1.806996822E0,8.493365049E-1,4.085329482E0
1.324779680E0,2.730264664E-1,1.308509827E0,-1.218800545E0,1.808926805E0
1.342875993E0,-2.263841629E0,-3.282117844E-1,2.930113792E0,3.717293200E0
1.360972796E0,-7.574071884E-1,-8.887681961E-1,5.728606701E0,5.846409949E0
1.379069475E0,1.332797050E0,-2.357578278E-2,3.496151447E0,3.741654545E0
1.397166521E0,6.390190125E-2,9.685850143E-2,1.701155901E-1,2.059231320E-1
1.415262407E0,-3.234071732E-1,6.068358421E-1,2.003981590E0,2.118675094E0
1.433356401E0,-1.979288101E0,-9.002542496E-2,-1.946192384E-1,1.990869813E0
1.451458635E0,2.537817001E0,3.081583977E-1,1.569664001E0,2.999886966E0
1.469552874E0,4.880463600E0,5.685696602E0,1.542116165E0,7.650110657E0
1.487631486E0,3.494615555E0,1.947268367E0,5.321976662E0,6.657899635E0
1.505748063E0,-8.102897644E0,-1.780439615E0,6.710766792E0,1.067058135E1
1.523842974E0,-5.909998894E0,3.732505322E0,5.093103886E0,8.648664064E0
1.541939287E0,-2.443004608E0,4.785819054E0,2.629052639E0,5.981994091E0
1.560035539E0,-2.185706615E0,2.365409851E0,1.696009755E0,3.639907452E0
1.578132525E0,-3.024839401E0,1.977334023E0,2.683975458E0,4.501469482E0
1.596228655E0,-2.061962128E0,2.366536379E0,-1.013157606E0,3.298282975E0
1.614325579E0,-3.259334564E-1,2.331475496E0,5.413668156E-1,2.415592813E0
1.632421708E0,-1.196783066E0,-2.533970475E-1,4.539053917E0,4.701011618E0
1.650518816E0,3.139990807E0,2.097110748E0,2.586877108E0,4.577045873E0
1.668603654E0,-3.936424732E0,-4.415873528E0,8.237078667E0,1.014124468E1
1.686712542E0,-4.559431553E0,-4.623568535E0,4.088207722E0,7.673281205E0
1.704808549E0,-4.039852142E0,-6.284640312E0,6.843687296E-1,7.502364277E0
1.722905656E0,-2.974625587E0,-8.161440849E0,-4.877965450E-1,8.700313764E0
1.740999346E0,3.305909157E0,-1.016843414E1,1.843993425E0,1.085017972E1
1.759099443E0,1.273396492E0,-1.562689495E1,3.405464172E0,1.604426909E1
1.777197222E0,5.171474457E0,-1.211928082E1,1.652464867E-1,1.317757269E1
1.795291643E0,4.221872807E0,-8.736528397E0,2.312292099E0,9.974860058E0
1.813388567E0,5.604946613E0,-3.888194561E0,2.164497852E0,7.156712544E0
1.831485186E0,2.150696754E0,-3.761823654E0,7.415288925E0,8.588557712E0
1.849581376E0,4.231854439E0,-7.305040359E-1,6.040737629E-1,4.336719180E0
1.867678362E0,-2.217893124E0,1.462332726E0,3.914888620E0,4.731154174E0
1.885774980E0,-2.077095985E0,2.995742559E0,-1.836948395E-1,3.650006166E0
1.903872026E0,-5.744047165E-1,1.652850151E0,-6.887259483E-1,1.880478086E0
1.921967974E0,1.972653866E0,1.014822483E0,-1.771724224E-1,2.225447823E0
1.940064775E0,3.556038380E0,1.212927341E0,-2.011293173E0,4.261678299E0
1.958161272E0,4.019297600E0,-1.696510315E-1,3.033988476E-1,4.034301120E0
1.976258440E0,4.350975037E0,1.037235260E-1,1.800925493E0,4.710103499E0
1.994342729E0,3.797972202E0,5.452156067E-2,1.277056932E0,4.007298324E0
2.012451372E0,3.265174389E0,1.603247166E0,1.624773383E0,3.983924423E0
2.030548234E0,4.357134342E0,4.308085442E0,1.951814532E0,6.430692017E0
2.048645159E0,3.719065189E0,6.866888523E0,3.670680523E-1,7.817950040E0
2.066741166E0,2.486120462E0,6.504011154E0,-1.167876244E0,7.060233068E0
2.084837725E0,2.243392229E0,5.531224251E0,-2.281710148E0,6.390105759E0
2.102934220E0,2.867710352E0,4.630976677E0,3.130084276E-2,5.447080630E0
2.121019671E0,2.689708948E0,3.861348629E0,1.918929577E0,5.082011234E0
2.139106035E0,2.367469311E0,4.346159458E0,-1.753296375E0,5.250529607E0
2.157227373E0,6.124715805E-1,3.302907944E0,-2.890903234E0,4.431889420E0
2.175320695E0,1.591480494E0,3.407047749E0,3.859217644E0,5.388352749E0
2.193414446E0,3.842252254E0,3.274708748E0,7.518997192E0,9.056596411E0
2.211517778E0,5.161592484E0,3.577070236E-1,2.236064076E-1,5.178802092E0
2.229610735E0,6.968503952E0,-4.931707382E0,1.297122359E0,8.635062909E0
2.247691057E0,7.121334076E0,-3.007797241E0,9.722406387E0,1.242116859E1
2.265804277E0,4.983703613E0,-3.771107674E0,1.157997036E1,1.315880953E1
2.283900285E0,3.222520351E0,-4.926574707E0,5.646640778E0,8.157225498E0
2.301997636E0,1.666199088E0,-7.383346558E0,2.198029041E0,7.881710313E0
2.320094134E0,1.526479244E0,-8.234930992E0,1.443647623E0,8.498726127E0
2.338190324E0,2.665774345E0,-8.675889015E0,-7.626962185E0,1.185529229E1
2.356287798E0,4.003200531E0,-4.741592407E0,-1.108859158E1,1.270689483E1
2.374383622E0,3.260651350E0,-2.140630722E0,-5.660814285E0,6.874515655E0
2.392480303E0,1.995475650E0,3.462213516E0,-8.158490658E-1,4.078535914E0
2.410577288E0,-3.084301353E-1,5.076890945E0,8.456016183E-1,5.156063704E0
2.428673723E0,-2.655706644E0,3.283535004E0,1.179282665E-1,4.224723302E0
2.446770586E0,-3.481248140E0,8.740835190E-1,-9.930685759E-1,3.724150347E0
2.464866899E0,-2.370649815E0,3.947391510E-1,2.806422710E-1,2.419619727E0
2.482961015E0,-1.619623065E0,1.185100555E0,1.566462040E0,2.545868324E0
2.501062883E0,-1.366152763E0,1.883527756E0,1.358483791E0,2.694351200E0
2.519156877E0,-1.331031322E-3,1.796101093E0,4.547029972E0,4.888912198E0
2.537253618E0,3.745518446E0,6.001186371E-1,4.137560844E0,5.613239755E0
2.555338701E0,5.605908394E0,-2.466421127E-1,-1.482002020E0,5.803737696E0
2.573446428E0,4.489799500E0,-2.098598480E-1,1.502092481E0,4.739052914E0
2.591543230E0,1.106435299E0,2.512012482E0,4.376669884E0,5.166202188E0
2.609640275E0,-3.777781963E0,2.847588539E0,2.728370667E0,5.461172360E0
2.627736956E0,-1.073419452E0,6.408591270E0,-5.892429352E-1,6.524528997E0
2.645832780E0,-6.170908213E-1,1.722736835E0,-9.380879402E-1,2.056363847E0
2.663930193E0,1.976181567E-2,-1.737915039E0,4.285748005E0,4.624756769E0
2.682026567E0,-9.402863979E-1,7.741346359E-1,5.467241287E0,5.601263272E0
2.700123125E0,-3.433251858E0,9.135758400E0,2.248236895E0,1.001518193E1
2.718219378E0,-6.665720463E0,1.285706234E1,-3.898801088E0,1.499788422E1
2.736316545E0,-7.911108017E0,-3.206338882E0,4.419273138E-1,8.547604275E0
2.754401873E0,-4.153420448E0,-1.360817146E1,6.437396526E0,1.561644345E1
2.772509966E0,-4.994900227E-1,-1.098863888E1,7.179517746E0,1.313564425E1
2.790606279E0,3.636970282E0,-2.286916733E0,2.398463726E0,4.920383036E0
2.808703020E0,5.832590103E0,-6.663074493E-1,1.853307366E0,6.156120623E0
2.826799517E0,5.488116741E0,-1.135438919E0,1.406899095E-1,5.606107433E0
2.844896563E0,2.673968315E0,-8.711481094E-1,-4.050440788E0,4.931031957E0
2.862993425E0,-1.068924665E0,-1.881333351E0,-8.091934204E0,8.376241059E0
2.881085527E0,-1.209626675E0,-3.443774223E0,-9.553816795E0,1.022732580E1
2.899188737E0,2.079729795E0,-2.424286842E0,-4.414502382E-1,3.224487716E0
2.917282854E0,4.737003803E0,-2.742400169E0,-1.904703259E0,5.795503276E0
2.935379228E0,4.454141140E0,-5.502519608E-1,-6.835393429E0,8.177087125E0
2.953476030E0,2.072172165E-1,-4.117456436E0,-3.365605831E0,5.322000478E0
2.971572527E0,1.194162369E-1,-5.027920723E0,9.314179420E-1,5.114859374E0
2.989667680E0,3.382017612E-1,-3.312701225E0,5.196901798E0,6.172208530E0
3.007759600E0,4.147654772E-1,-2.608469009E0,2.215705156E0,3.447533947E0
3.025862505E0,2.942299843E0,-1.274434090E0,-2.622795582E0,4.142507366E0
3.043958818E0,4.800507069E0,1.304611206E0,8.883126974E-1,5.053313563E0
3.062044329E0,2.293008804E0,5.591156960E0,-1.980611801E0,6.359382724E0
3.080152177E0,-4.938215256E0,5.724982262E0,-1.315976429E1,1.517698218E1
3.098248919E0,-7.164510727E0,1.786001205E0,-1.222586870E0,7.484299093E0
3.116345537E0,-6.676890850E0,-1.264333725E0,1.170059299E1,1.353082731E1
3.134430620E0,-6.361825943E0,-2.446754456E0,9.152173996E0,1.141147342E1
3.152538774E0,-4.978762150E0,4.338855743E-1,1.014807940E0,5.099623946E0
3.170635515E0,-1.167486668E0,3.930601597E0,2.896404982E0,5.020141019E0
3.188732255E0,1.924900413E-1,8.589859009E-1,3.970078468E0,4.066501228E0
3.206828875E0,-1.021820664E0,-2.747296333E0,1.348565340E0,3.226512527E0
3.224924882E0,-3.515168428E-1,-3.915458679E0,-8.271491528E-1,4.017282226E0
3.243018877E0,-2.806758881E-1,-1.174205780E0,-6.858640909E-1,1.388505570E0
3.261121232E0,1.218218565E0,9.164428711E-1,2.392462730E0,2.836864805E0
3.279215471E0,2.109749794E0,1.914959908E0,6.311463833E0,6.924788181E0
3.297311601E0,3.367136955E0,8.612604141E-1,3.958314419E0,5.267602283E0
3.315405718E0,4.089160919E0,-1.036972046E0,-3.913483620E-1,4.236708816E0
3.333507890E0,2.082023621E0,-1.473317146E0,-2.928039551E0,3.883156111E0
3.351602068E0,2.897982597E-1,-6.286811829E-2,-1.560676575E0,1.588599006E0
3.369697770E0,4.853959084E-1,1.311324120E0,-1.349165201E0,1.943045773E0
3.387795061E0,2.448902130E-1,2.585446835E0,-9.861516953E-1,2.777949193E0
3.405897111E0,2.215373516E-1,3.444777966E0,2.084934950E0,4.032682454E0
3.423977190E0,2.524274588E0,3.008441925E0,3.391249418E0,5.188762630E0
3.442084489E0,9.628633499E0,2.705682755E0,3.093458414E0,1.046903946E1
3.460181535E0,5.469060898E0,-2.381076813E0,-2.234489441E0,6.369701481E0
3.478278277E0,6.330505371E0,-7.612233162E0,-1.845010185E1,2.093866401E1
3.496374834E0,1.252885056E1,-1.627683640E-1,6.103692055E0,1.393749068E1
3.514468279E0,5.349316597E0,6.047592163E-1,3.940910816E0,6.671708913E0
3.532570390E0,-3.228476524E0,-1.542349815E0,-5.327291489E0,6.417315500E0
3.550664385E0,-1.472051382E0,-1.349395752E0,-9.023055077E0,9.241392053E0
3.568761614E0,3.088953733E0,-1.597632408E0,-5.978229046E0,6.916161291E0
3.586857560E0,5.884708881E0,-1.265151024E0,9.556185007E-1,6.094555968E0
3.604953936E0,8.354276657E0,-2.263740540E0,5.793107748E-1,8.674909836E0
3.623051103E0,5.804073334E0,-9.238230705E0,4.454027176E0,1.178433417E1
3.641147478E0,1.092088223E-1,-1.069236088E1,-6.097550869E0,1.230929057E1
3.659244402E0,-5.605157852E0,-2.801942825E0,-5.248806000E0,8.174267097E0
3.677340470E0,-8.326047897E0,-4.290549278E0,-1.498578072E0,9.485653532E0
3.695437456E0,-9.088125229E0,-4.643248558E0,5.520355225E0,1.160293494E1
3.713534014E0,-6.995099545E0,-6.160946846E0,6.163281441E0,1.117473587E1
3.731630265E0,-1.578039646E0,-3.119707108E0,3.896499395E0,5.235025224E0
3.749727373E0,7.502972484E-1,-7.041721344E-1,2.636494637E0,2.830178144E0
3.767821183E0,5.819308758E-1,4.505748749E-1,2.628311634E0,2.729410799E0
3.785909746E0,-3.261678517E-1,5.938796997E-1,4.044308662E0,4.100672033E0
3.804016557E0,-1.242327690E0,1.597939968E0,3.148597956E0,3.743054811E0
3.822113786E0,-1.144605160E0,3.463320255E0,2.893373489E0,4.655783319E0
3.840210344E0,-1.482600212E0,4.923554897E0,2.287356377E0,5.627743367E0
3.858307390E0,-1.322507858E0,5.601525307E0,3.490616083E0,6.731308449E0
3.876403154E0,-2.543357134E0,6.024701595E0,4.086993217E0,7.711628128E0
3.894500139E0,-4.125346661E0,5.317552567E0,3.135152578E0,7.424556018E0
3.912597063E0,-3.877522469E0,4.775856018E0,9.099190235E-1,6.218676212E0
3.930693438E0,-1.426356554E0,4.577580929E0,-2.106790543E-1,4.799283889E0
3.948789811E0,2.048549414E0,5.311600685E0,-8.183021545E-1,5.751458507E0
3.966886857E0,9.355853081E0,6.893254280E0,-2.567571878E0,1.190131786E1
3.984983416E0,1.291042423E1,9.173812866E0,-2.404411077E0,1.601933485E1
4.003077959E0,6.722021103E0,6.840373993E0,-1.851654291E0,9.767543585E0
4.021178728E0,3.246254206E0,4.288852215E0,1.809787750E-2,5.378916919E0
4.039273211E0,-6.579616070E-1,2.672603607E0,1.467227459E0,3.119051127E0
4.057369463E0,-5.211085796E0,3.128243446E0,-9.555637360E0,1.132481910E1
4.075466692E0,4.017747402E0,-1.120284081E0,1.987545848E0,4.620353786E0
4.093562639E0,-5.399768829E0,-3.038262177E1,-2.162315369E0,3.093439536E1
4.111652605E0,-8.675211668E-1,-2.629367828E1,1.563675404E-1,2.630845038E1
4.129756486E0,-2.774904966E0,-1.475749111E1,4.639267921E-2,1.501618439E1
4.147852983E0,-5.601644993E0,-1.951815224E1,1.729090333E0,2.037955953E1
4.165949357E0,-4.120361805E0,-2.287263680E1,5.261950493E-1,2.324675841E1
4.184046038E0,-2.749337673E0,-1.852077293E1,1.529073715E-1,1.872434961E1
4.202139971E0,-4.849931002E-1,-1.533348656E1,1.247664928E0,1.539180613E1
4.220243669E0,2.717026234E0,-1.101903820E1,1.648040771E0,1.146810677E1
4.238334246E0,4.111824036E0,-6.393667221E0,9.808385372E-2,7.602348182E0
4.256420793E0,3.988492489E0,-1.583750725E0,-9.472831488E-1,4.394733673E0
4.274529314E0,1.709899426E0,3.163579464E0,-4.751263142E0,5.958732458E0
4.292626116E0,8.089975119E-1,1.026058102E1,-4.880915642E0,1.139110782E1
4.310722246E0,2.684326410E0,1.157635212E1,-4.995229721E0,1.289068876E1
4.328819109E0,4.496430874E0,1.060841942E1,-7.016797066E0,1.349043714E1
4.346916033E0,2.892274380E0,1.040779018E1,2.005923390E-1,1.080405410E1
4.365011919E0,1.890537500E0,1.119442463E1,6.220174313E0,1.294526335E1
4.383108476E0,1.151149750E0,9.582924843E0,6.547883034E0,1.166329141E1
4.401205705E0,1.230077028E0,9.604095459E0,2.513227701E0,1.000340205E1
4.419301836E0,2.070351124E0,1.112839508E1,-1.174984336E0,1.138016340E1
4.437393206E0,1.743216634E0,1.098704815E1,3.061268330E-1,1.112869017E1
4.455495195E0,1.368311405E0,9.762088776E0,2.816172600E0,1.025190136E1
4.473591936E0,8.765976429E-1,8.362610817E0,4.170776844E0,9.386003547E0
4.491688677E0,-1.409340620E0,7.266464233E0,3.776644468E0,8.309680311E0
4.509782610E0,-4.295656681E0,6.296329498E0,6.106201410E-1,7.646521329E0
4.527886125E0,-6.090121269E0,6.771203041E0,-1.712751865E0,9.266730095E0
4.545978106E0,-5.123468399E0,7.735567093E0,5.111961365E-1,9.292483423E0
4.564075090E0,-3.634935617E0,8.923937798E0,2.293774128E0,9.905090737E0
4.582160051E0,-1.973139286E0,9.793645859E0,2.328874111E0,1.025828604E1
4.600268083E0,-1.742483497E0,1.090114784E1,2.280372620E0,1.127259386E1
4.618365130E0,-2.059998989E0,1.107017326E1,3.279854298E0,1.172816167E1
4.636461565E0,-1.716127634E0,1.081874943E1,4.666853905E0,1.190671905E1
4.654556047E0,-1.080301523E0,9.947954178E0,5.631805897E0,1.148242489E1
4.672656450E0,8.466829062E-1,8.369029999E0,4.595355034E0,9.585135521E0
4.690751238E0,5.104729652E0,4.751577377E0,-8.279554367E0,1.082528396E1
4.708847612E0,3.588143826E0,-9.596624374E0,4.992883682E0,1.139731824E1
4.726944658E0,-1.038994122E1,-2.297172928E1,-6.484675884E0,2.603271491E1
4.745030839E0,1.114887142E1,-2.819769287E1,1.424027824E1,3.349914539E1
4.763135271E0,2.694144249E1,-3.518443298E1,-1.121878242E1,4.571265390E1
4.781237077E0,2.516160965E1,-3.912532806E1,-2.454717827E1,5.259716587E1
4.799331133E0,-5.047553778E-1,-2.892918396E1,-9.267262459E0,3.038148476E1
4.817426836E0,2.479793310E0,-2.389079475E1,3.648402691E0,2.429465561E1
4.835523149E0,-1.045248747E0,-1.638674355E1,4.728783131E0,1.708740176E1
4.853622148E0,-1.073584080E0,-1.259076309E1,1.635249019E0,1.274181845E1
4.871717485E0,2.956023693E0,-8.303629875E0,-2.650164127E0,9.203896733E0
4.889813859E0,8.096879959E0,-2.346711159E0,-5.011299133E0,9.807121766E0
4.907910417E0,9.291258812E0,2.949642658E0,-2.855227470E0,1.015776580E1
4.926002154E0,4.821018696E0,7.714735985E0,-2.993358970E-1,9.102141207E0
4.944103838E0,4.238524735E-1,1.040036392E1,1.968261957E0,1.059345438E1
4.962200273E0,-1.722729683E0,1.284629059E1,8.457991481E-1,1.298885506E1
4.980297259E0,-3.670073509E0,1.392092323E1,-7.558447719E-1,1.441640886E1
4.998393938E0,-2.134164095E0,1.264075661E1,-3.776540756E0,1.336434226E1
5.016487566E0,-2.927391231E-1,1.027468491E1,-1.857985854E-1,1.028053341E1
5.034589372E0,8.445904255E-1,9.752037048E0,4.377698898E0,1.072286376E1
5.052683245E0,1.213681102E0,1.014885616E1,4.386798382E0,1.112278307E1
5.070776445E0,8.798833489E-1,8.710508347E0,5.274135590E0,1.022074638E1
5.088876848E0,9.172639847E-1,8.160993576E0,5.298634529E0,9.773367753E0
5.106972978E0,1.819340229E0,8.657943726E0,2.926085472E0,9.318367057E0
5.125070208E0,1.655560970E0,9.589506149E0,-2.647171021E-1,9.734967152E0
5.143166399E0,5.963143110E-1,9.748549461E0,-9.769593477E-1,9.815511037E0
5.161263079E0,-1.225465059E0,9.333045006E0,3.289617300E-1,9.418901715E0
5.179359208E0,-2.836884022E0,8.776704788E0,1.769128799E0,9.391926033E0
5.197444475E0,-3.367760658E0,8.751938820E0,1.758624792E0,9.541017038E0
5.215552568E0,-2.185146332E0,9.254660606E0,-8.938658237E-2,9.509552954E0
5.233638872E0,-1.096315265E0,9.581882477E0,-2.326897860E0,9.921130611E0
5.251744829E0,-4.580998421E-1,9.489324570E0,-2.032275677E0,9.715311662E0
5.269843950E0,3.515045643E-1,9.833752632E0,8.068911433E-1,9.873060296E0
5.287939409E0,-7.106205821E-1,9.785590172E0,3.466765404E0,1.040582620E1
5.306036028E0,-2.426299810E0,8.574185371E0,4.265044212E0,9.878977057E0
5.324131913E0,-1.356272340E0,5.915100098E0,-4.134264469E0,7.343025706E0
5.342229082E0,5.845582962E0,-2.600621223E0,-1.381753922E1,1.522689925E1
5.360325884E0,-4.398301601E0,-1.799476624E1,8.925500870E0,2.056261741E1
5.378422442E0,6.602808475E0,-2.654352379E1,2.283382607E1,3.563059567E1
5.396518388E0,1.855421066E1,-2.976837921E1,1.622294426E0,3.511476859E1
5.414615556E0,2.304454041E1,-3.547052002E1,-2.282429504E1,4.806409343E1
5.432712359E0,4.442912102E0,-3.117625046E1,-9.734468460E0,3.296146139E1
5.450808977E0,5.088873863E0,-2.374979019E1,8.960059166E0,2.588883604E1
5.468904924E0,1.906112909E0,-1.864327431E1,8.682783127E0,2.065419246E1
5.487002093E0,-1.893674016E0,-1.485912704E1,4.333439827E0,1.559353579E1
5.505098528E0,-2.494339228E0,-1.360523701E1,2.330305576E0,1.402692148E1
5.523173723E0,1.882178187E0,-5.133562088E0,-2.196956635E0,5.892594751E0
5.541294877E0,3.543785572E0,7.613458633E-1,-3.572477818E0,5.089269246E0
5.559388628E0,2.813591003E0,6.823314667E0,-2.287327528E0,7.726951831E0
5.577484941E0,-9.044200182E-2,1.113397408E1,-1.372602224E0,1.121862716E1
5.595582232E0,-1.288939476E0,1.365570641E1,-2.985872269E0,1.403763212E1
5.613677995E0,-5.075798631E-1,1.530667877E1,-4.237465858E0,1.589050563E1
5.631774981E0,1.737787247E0,1.369089317E1,-4.121681690E0,1.440308024E1
5.649871294E0,2.811425686E0,1.026212883E1,1.420705914E-1,1.064122110E1
5.667966631E0,2.550731421E0,9.678629875E0,4.772893906E0,1.108885131E1
5.686065813E0,4.011014462E0,8.643158913E0,8.267921448E0,1.261550467E1
5.704161028E0,4.284161091E0,7.602660179E0,8.622624397E0,1.226801245E1
5.722257707E0,3.640379429E0,7.262526035E0,6.203413486E0,1.022149625E1
5.740354876E0,4.633477926E-1,8.282121658E0,-3.025808334E0,8.829708173E0
5.758450944E0,-8.734292388E-1,9.296953201E0,-3.537334919E0,9.985437186E0
5.776547747E0,-4.423792362E-1,9.933734894E0,1.417684555E0,1.004413350E1
5.794644243E0,-4.567698836E-1,1.013029575E1,4.463272095E0,1.107936499E1
5.812740434E0,-1.557756305E0,9.741932869E0,5.748341084E0,1.141819977E1
5.830837908E0,-3.447532654E0,9.175864220E0,4.874899387E0,1.094744763E1
5.848934221E0,-4.885588646E0,8.934953690E0,2.285938740E0,1.043685248E1
5.867030351E0,-3.839916229E0,9.414746284E0,7.793253660E-1,1.019753658E1
5.885115679E0,-1.679670334E0,9.694270134E0,6.466763020E-1,9.859936922E0
5.903223649E0,-4.469226599E-1,9.701101303E0,1.338417292E0,9.803186584E0
5.921320513E0,2.988550663E-1,8.911615372E0,2.618024349E0,9.293021811E0
5.939417009E0,3.980509043E-1,6.790370941E0,4.940768719E0,8.407067121E0
5.957510942E0,2.409430504E0,4.992293835E0,2.175974369E0,5.955100128E0
5.975614031E0,8.136368752E0,-2.477027893E0,-4.668107033E0,9.701926969E0
5.993705339E0,1.507338524E0,-1.526292419E1,-5.428248882E0,1.626944407E1
6.011803301E0,-5.977441072E-1,-2.588814926E1,1.913447380E1,3.219754118E1
6.029900042E0,8.163913727E0,-4.011812592E1,1.348560429E1,4.310423456E1
6.047996171E0,2.452104187E1,-3.861887360E1,-2.450924110E1,5.189799410E1
6.066093034E0,8.850489616E0,-3.160569191E1,-1.692705154E1,3.692933795E1
6.084186907E0,4.545995235E0,-2.214804268E1,1.908279991E1,2.958640092E1
6.102287126E0,-3.953280449E0,-1.599553108E1,9.924805641E0,1.923505154E1
6.120385332E0,-1.115370274E1,-1.520109653E1,6.398369670E-1,1.886498905E1
6.138479386E0,6.953810453E-1,-9.022767067E0,3.842009008E-1,9.057675788E0
6.156576006E0,8.246123314E0,-2.966727257E0,-2.440331221E0,9.096990535E0
6.174673235E0,1.075441551E1,4.340227127E0,-3.739077091E0,1.218506143E1
6.192765642E0,8.642127037E0,9.662849426E0,-2.223710537E0,1.315301894E1
6.210866106E0,2.395600557E0,1.235186768E1,-3.373071432E0,1.302632519E1
6.228961869E0,6.769447327E-1,1.426260281E1,-4.205923557E0,1.488522375E1
6.247059404E0,7.390552163E-1,1.500509453E1,-2.485075712E0,1.522743136E1
6.265152727E0,-2.954720259E0,1.283960533E1,4.702253819E0,1.398917538E1
6.283255633E0,-5.084115028E0,1.097904491E1,5.597732067E0,1.333125115E1
6.301347795E0,-5.275832653E0,8.957727432E0,5.128580570E0,1.159213654E1
6.319446001E0,-3.233587503E0,8.207578659E0,3.045937061E0,9.332639936E0
6.337529802E0,5.980269909E-1,7.528497696E0,1.573168516E0,7.714322590E0
6.355638628E0,3.056805611E0,7.984456062E0,-2.797700167E0,8.995705941E0
6.373735124E0,1.180928469E0,9.562720299E0,-6.697769165E0,1.173457811E1
6.391833086E0,-1.372900963E0,9.590337753E0,-4.407719135E0,1.064365648E1
6.409924760E0,-2.379185200E0,9.083950996E0,-1.142553806E0,9.459604491E0
6.428027788E0,-2.996849060E0,8.564721107E0,5.585936308E-1,9.091071377E0
6.446121660E0,-2.366099596E0,9.089295387E0,1.609853506E-1,9.393595383E0
6.464218218E0,-9.013625979E-1,1.011576748E1,-2.230864167E-1,1.015829581E1
6.482303056E0,8.244045973E-1,1.097323227E1,3.335764408E-1,1.100921172E1
6.500399431E0,2.778944969E0,1.099310684E1,5.561890602E-1,1.135254507E1
6.518508195E0,4.429731369E0,1.099957275E1,2.816369534E-1,1.186138441E1
6.536604937E0,4.340061665E0,9.690040588E0,1.314603806E0,1.069865436E1
6.554701005E0,3.414771318E0,5.842034340E0,5.408164024E0,8.662463074E0
6.572797685E0,3.962384701E0,-2.299179077E0,-3.406145811E0,5.708637861E0
6.590891741E0,-3.248298407E0,-1.704752350E1,-1.332483864E1,2.187968978E1
6.608994035E0,-6.740436554E0,-2.804749870E1,6.217811108E0,2.950858932E1
6.627087053E0,2.750651598E0,-3.778425598E1,1.862592697E1,4.221541472E1
6.645183672E0,1.021296978E1,-3.837834930E1,4.076927185E0,3.992272263E1
6.663280351E0,1.544985390E1,-2.674660492E1,-1.806393814E1,3.578246388E1
6.681365679E0,6.064759254E0,-2.382153702E1,-8.904259682E0,2.614445967E1
6.699473649E0,-5.850292444E-1,-2.001013184E1,4.846821785E0,2.059707059E1
6.717570451E0,-3.429584026E0,-1.384141064E1,-4.021273851E-1,1.426563709E1
6.735667132E0,4.632258415E-1,-6.023892403E0,-5.260921478E0,8.011189216E0
6.753763994E0,4.589526653E0,9.964618683E-1,-2.375222683E0,5.262924467E0
6.771860002E0,4.675947189E0,6.771965504E0,-2.544798255E-1,8.233392914E0
6.789956927E0,1.937458515E0,1.011989689E1,2.716559470E-1,1.030727197E1
6.808051042E0,-1.185514927E-1,1.301563835E1,-2.491978556E-1,1.301856350E1
6.826152422E0,-2.693203688E-1,1.440480137E1,9.874975681E-1,1.444112140E1
6.844246049E0,5.998151302E-1,1.420113373E1,2.777772665E0,1.448267925E1
6.862343156E0,-6.973775029E-1,1.226014900E1,2.145139694E0,1.246592208E1
6.880427813E0,-2.183628082E0,1.054517365E1,1.410311699E0,1.086084241E1
6.898536272E0,-3.755533457E0,9.429796219E0,7.382815480E-1,1.017694197E1
6.916632646E0,-3.668693542E0,8.861486435E0,7.511721253E-1,9.620265782E0
6.934729632E0,-2.518760204E0,9.020723343E0,8.724672794E-1,9.406317119E0
6.952826249E0,-1.533736348E0,9.082551003E0,7.090893388E-1,9.238392046E0
6.970922869E0,-1.693171501E0,8.848722458E0,-3.412351906E-1,9.015717405E0
6.989018876E0,-2.695944786E0,8.478383064E0,-3.287992954E0,9.484829748E0
7.007115313E0,-3.587277174E0,8.351058960E0,-5.388957977E0,1.056643797E1
7.025212297E0,-3.208472967E0,8.441091537E0,-3.443017244E0,9.664403389E0
7.043295061E0,-1.603364944E0,9.343341827E0,-8.884843588E-1,9.521461028E0
7.061408220E0,-4.612125158E-1,1.057152367E1,4.046818018E-1,1.058931523E1
7.079502337E0,1.609544754E-1,1.124304199E1,-1.706695855E-1,1.124548922E1
7.097598833E0,1.455909491E0,1.073217773E1,-7.332509756E-1,1.085527376E1
7.115696855E0,3.581561565E0,9.192007065E0,-2.114067554E0,1.008909603E1
7.133790361E0,1.045689774E1,5.937402725E0,-5.489549160E0,1.321872200E1
7.151888323E0,6.551547050E0,-1.090426159E1,3.255916357E0,1.313113403E1
7.169984758E0,-4.529562950E0,-2.545890427E1,6.272578716E0,2.660860746E1
7.188081865E0,-1.706569076E0,-3.593864441E1,6.105221748E0,3.649345520E1
7.206165849E0,7.226759911E0,-4.030943680E1,-9.408336878E-1,4.096293351E1
7.224274553E0,1.291102505E1,-3.310623932E1,-9.338747025E0,3.674139145E1
7.242371416E0,8.157290459E0,-2.627223778E1,-7.576683998E0,2.853380462E1
7.260468157E0,-1.202729344E0,-2.154852295E1,-3.438306093E0,2.185422952E1
7.278564287E0,-4.396969795E0,-1.472730637E1,-1.534775019E0,1.544611377E1
7.296660845E0,-4.701775074E0,-5.972195625E0,-1.940873742E0,7.844794473E0
7.314757157E0,-1.492322922E0,3.626101494E0,-1.705497980E0,4.276021879E0
7.332854143E0,2.949635983E-1,1.001940632E1,3.240066767E-2,1.002379949E1
7.350932206E0,-8.691252470E-1,1.294508457E1,2.070199847E-1,1.297587957E1
7.369046892E0,-6.654977798E-1,1.404711914E1,8.282494545E-2,1.406311855E1
7.387144243E0,8.906633854E-1,1.402463722E1,5.412671566E-1,1.406331044E1
7.405241167E0,3.196347952E-1,1.178255367E1,1.542275429E0,1.188736098E1
7.423324968E0,-1.559282541E0,9.157523155E0,2.583590269E0,9.641915321E0
7.441433489E0,-3.114214897E0,9.753300667E0,1.720124483E0,1.038190910E1
7.459529863E0,-5.151988029E0,8.524714470E0,1.791561246E0,1.012044609E1
7.477627397E0,-5.221608639E0,8.911785126E0,1.215627193E0,1.040013752E1
7.495723222E0,-3.416275978E0,9.356889725E0,-6.089127660E-1,9.979634344E0
7.513819657E0,-2.431565285E0,9.538444519E0,-1.235022306E0,9.920671029E0
7.531916094E0,-2.821412325E0,9.264621735E0,-1.516167402E0,9.802670401E0
7.550013140E0,-3.628340721E0,9.030737877E0,-2.157011986E0,9.968539697E0
7.568109392E0,-3.958447456E0,8.862821579E0,-3.451635838E0,1.030207273E1
7.586194169E0,-3.760333061E0,9.014263153E0,-3.798640490E0,1.047982416E1
7.604302935E0,-2.587644815E0,8.967374802E0,-2.549445152E0,9.675194422E0
7.622399492E0,-6.116352081E-1,9.079538345E0,-1.948473096E0,9.306377469E0
7.640492815E0,3.049922228E0,1.026136494E1,-1.514750004E0,1.081166516E1
7.658590654E0,6.438071251E0,9.145366669E0,1.081770062E0,1.123640153E1
7.676687395E0,6.157354355E0,5.176159859E0,6.332178593E0,1.023729111E1
7.694785845E0,1.193457127E0,-7.478342056E-1,6.169307709E0,6.328029197E0
7.712881669E0,-2.672255993E0,-1.270755577E1,-1.002185917E1,1.640306639E1
7.730978350E0,-3.820216417E0,-3.068280792E1,-3.956650496E-1,3.092224614E1
7.749075212E0,4.890374184E0,-3.891015625E1,1.606540680E1,4.237939729E1
7.767172258E0,1.026723862E1,-4.727953720E1,8.057476044E0,4.904787199E1
7.785263384E0,5.069139481E0,-3.524788666E1,-3.477729416E1,4.977519340E1
7.803364762E0,6.361238480E0,-2.373016548E1,9.398998260E0,2.630451058E1
7.821461809E0,-1.137980223E0,-1.479285431E1,1.096154690E1,1.844665411E1
7.839558550E0,-1.110136986E1,-7.788716316E0,-7.314968109E-2,1.356133716E1
7.857652117E0,-3.163607359E0,4.667474747E0,-6.673446655E0,8.736625338E0
7.875751848E0,4.984712601E0,7.645183086E0,-4.524451256E0,1.018660117E1
7.893849504E0,6.149317741E0,1.417762756E1,2.445135117E-1,1.545571153E1
7.911944963E0,4.562184811E0,1.663840103E1,-1.755704880E0,1.734163830E1
7.930034013E0,1.080828309E0,1.421386242E1,-5.637955666E0,1.532933850E1
7.948125261E0,-1.975418091E0,1.056621265E1,3.104313374E0,1.118856059E1
7.966234270E0,-3.642635584E0,9.022824287E0,4.149051189E0,1.057803280E1
7.984330950E0,-1.889560699E0,9.740114212E0,2.704136372E-1,9.925391077E0
8.002426835E0,-2.044478655E-1,9.807253838E0,-1.773614883E-1,9.810987915E0
8.020520586E0,7.388267517E-1,8.849247932E0,4.207392931E-1,8.889998622E0
8.038623247E0,-7.208824158E-3,8.099645615E0,-6.574487090E-1,8.126287581E0
8.056717241E0,-1.982239485E0,8.419510841E0,-1.721128821E0,8.819281184E0
8.074812761E0,-4.596459389E0,8.641112328E0,-1.947538257E0,9.979437180E0
8.092898028E0,-6.662278175E0,9.005183220E0,-2.643621445E0,1.150947478E1
8.110994768E0,-7.031177044E0,9.507028580E0,-3.479633331E0,1.232594382E1
8.129103594E0,-5.911552429E0,9.559174538E0,-2.450663567E0,1.150347869E1
8.147199418E0,-2.294093132E0,9.080226898E0,9.939360619E-2,9.366069769E0
8.165296221E0,-1.147495985E0,9.648956299E0,1.241378069E0,9.795923857E0
8.183392839E0,1.151413441E0,1.153594589E1,1.099501371E0,1.164528676E1
8.201486467E0,5.130092621E0,1.121716595E1,4.656611085E-1,1.234339914E1
8.219588457E0,8.981018066E0,6.761002541E0,2.889064312E0,1.160674517E1
8.237682818E0,8.282463074E0,4.944800377E0,-2.142599106E0,9.881344861E0
8.255778948E0,-1.504811168E0,1.618399143E0,-3.116060638E1,3.123887102E1
8.273875628E0,-8.392527103E-1,-1.355036354E1,7.531806469E0,1.552561773E1
8.291972612E0,-6.845380306E0,-2.376654434E1,1.566515541E1,2.927635489E1
8.310068681E0,2.621109247E0,-3.182835388E1,6.471682549E0,3.258522671E1
8.328165667E0,1.863492584E1,-3.072338867E1,-5.737092972E0,3.638820287E1
8.346261919E0,2.287560654E1,-3.206179047E1,-2.203300476E1,4.512986906E1
8.364357988E0,3.255973339E0,-3.564451981E1,-1.294287562E0,3.581631381E1
8.382454729E0,-1.160140514E0,-2.429363632E1,1.695065260E0,2.438031866E1
8.400550493E0,-4.071053982E0,-1.544092083E1,-1.585927963E0,1.604713944E1
8.418644548E0,-4.790618896E0,-7.439603806E0,1.906041503E-1,8.850653317E0
8.436732499E0,2.593438625E-1,1.796999931E0,-1.052438736E0,2.098593645E0
8.454841142E0,1.914389849E0,6.607814312E0,-2.946004152E0,7.483785068E0
8.472937945E0,-5.746486187E-1,8.215565681E0,-1.764374375E0,8.422514912E0
8.491034746E0,-3.966852188E0,8.734760284E0,-4.696072936E-1,9.604815694E0
8.509130204E0,-5.093575478E0,9.769911766E0,3.051661253E-1,1.102219640E1
8.527227373E0,-3.591567039E0,1.021670914E1,-5.441766977E-1,1.084327569E1
8.545323931E0,-2.101922989E0,1.052841377E1,3.336411715E-1,1.074136366E1
8.563417680E0,-1.702541590E0,1.137784386E1,2.100237846E0,1.169465595E1
8.581518755E0,-3.628839731E0,1.042690468E1,1.324923396E0,1.111954320E1
8.599613847E0,-5.201160431E0,9.598073959E0,1.443584919E0,1.101176784E1
8.617710344E0,-4.628291130E0,8.884356499E0,8.747704029E-1,1.005574922E1
8.635807268E0,-4.298637390E0,7.695334911E0,3.890385628E-1,8.823140813E0
8.653902483E0,-4.291663647E0,7.542772293E0,-5.154495239E-1,8.693530867E0
8.671998552E0,-4.149484158E0,8.340387344E0,-2.120894432E0,9.553976817E0
8.690098528E0,-4.208098412E0,8.933068275E0,-3.787647724E0,1.057610875E1
8.708193010E0,-4.703504086E0,8.673094749E0,-4.833034515E0,1.098652565E1
8.726289140E0,-4.460477352E0,8.173405647E0,-3.252512455E0,9.863024655E0
8.744386064E0,-3.600578070E0,7.534093380E0,-1.884741306E0,8.560313971E0
8.762482805E0,-2.781141758E0,8.022249222E0,-2.507163525E0,8.853084264E0
8.780576738E0,-2.324050426E0,1.128595638E1,-2.209714413E0,1.173272601E1
8.798678179E0,-9.191231728E-1,1.130737877E1,-9.487327337E-1,1.138427406E1
8.816771990E0,7.311410904E-1,1.072597027E1,-2.527776003E0,1.104403264E1
8.834868791E0,5.490169525E0,8.613352776E0,-1.034057522E1,1.453476189E1
8.852965960E0,6.217908859E-1,-3.025297165E0,2.087770939E0,3.727979927E0
8.871061601E0,-4.020195007E-1,-1.435138226E1,9.332586288E0,1.712369584E1
8.889158464E0,5.170295715E0,-2.624253273E1,4.880019188E0,2.718854665E1
8.907255022E0,4.400319576E0,-3.758338165E1,3.330806732E0,3.798641418E1
8.925352251E0,1.079557228E1,-4.118194962E1,-4.842079639E0,4.284790649E1
8.943448015E0,1.310098267E1,-3.304808807E1,-5.355736256E0,3.595129738E1
8.961544755E0,5.935353756E0,-2.827837563E1,-7.547682762E0,2.986406649E1
8.979641253E0,-1.136137962E0,-2.277487946E1,-2.560816288E0,2.294654056E1
8.997737138E0,-5.932379723E0,-1.215501213E1,9.381049871E-2,1.352576244E1
9.015835405E0,-7.131613255E0,-5.921180725E0,-2.876430511E0,9.705366623E0
9.033930802E0,-4.463092327E0,6.743049622E-2,-2.376216412E0,5.056693033E0
9.052027117E0,6.415176392E-1,6.127477646E0,7.076855302E-1,6.201479339E0
9.070124407E0,5.758047104E-2,1.014077950E1,-1.069487453E0,1.019718234E1
9.088220292E0,-2.043740273E0,1.142109013E1,-1.363313198E-2,1.160251524E1
9.106316972E0,-2.902154207E0,1.199362183E1,9.930772185E-1,1.237964725E1
9.124413469E0,-2.399301529E-1,1.227536964E1,9.956045151E-1,1.231801505E1
9.142507707E0,1.657697201E0,1.157712173E1,1.004541159E0,1.173826267E1
9.160609270E0,2.677175760E0,1.124591732E1,1.867409706E0,1.171004464E1
9.178703203E0,1.548853159E0,9.989994049E0,1.650503874E0,1.024319727E1
9.196799639E0,-2.180735588E0,9.001941681E0,2.457783222E-1,9.265579783E0
9.214878313E0,-4.416913986E0,8.261181831E0,-1.459290385E0,9.480811297E0
9.232992692E0,-3.858083487E0,8.425329208E0,-7.194331288E-2,9.266938885E0
9.251089555E0,-2.912117720E0,8.721012115E0,1.465046167E0,9.310362088E0
9.269186053E0,-2.622137785E0,8.897784233E0,1.451590300E0,9.388998095E0
9.287283098E0,-2.577948332E0,9.446274757E0,-4.295612872E-1,9.801145203E0
9.305379412E0,-3.036211729E0,9.531812668E0,-1.671207309E0,1.014233544E1
9.323474809E0,-2.742673397E0,9.659502029E0,-8.919336796E-1,1.008086219E1
9.341566728E0,-2.061538935E0,9.743478775E0,1.530383974E-1,9.960358536E0
9.359668901E0,-1.756167173E0,9.910204887E0,7.607653141E-1,1.009331699E1
9.377762224E0,-1.793304205E0,9.890014648E0,7.572417259E-1,1.007976908E1
9.395861894E0,-1.931237221E0,9.818560600E0,-2.078744173E-1,1.000884715E1
9.413958330E0,-1.503763080E0,9.626625061E0,-1.884028614E-1,9.745189023E0
9.432055376E0,-7.767817974E-1,8.199664116E0,1.039832115E0,8.301754778E0
9.450148699E0,-9.022283554E-2,3.736896515E0,-3.808723092E-1,3.757339410E0
9.468250383E0,4.163220406E0,-3.889003754E0,2.581448317E0,6.254648651E0
9.486344682E0,-2.125951290E0,-2.187958527E1,5.646244049E0,2.269616690E1
9.504441362E0,-2.081789494E0,-3.359278870E1,2.884297371E0,3.378059312E1
9.522525285E0,1.441404152E1,-4.307466888E1,-8.555817604E-1,4.543042717E1
9.540634417E0,2.836233902E1,-3.721574783E1,-4.401761055E0,4.699797508E1
9.558730791E0,1.331975746E1,-2.678587151E1,-2.993453026E1,4.231991201E1
9.576827532E0,-4.320072651E0,-2.785212708E1,-2.364918709E0,2.828421558E1
9.594920793E0,-6.139321327E0,-1.826391792E1,4.900514603E0,1.988157458E1
9.613023088E0,-5.692521095E0,-9.089671135E0,4.012885571E0,1.145120816E1
9.631116532E0,-1.971443534E0,-1.017765999E0,1.763439178E0,2.834105674E0
9.649213518E0,1.142612934E0,7.271121979E0,-1.310302973E0,7.476073370E0
9.667298601E0,4.018431664E0,1.225658035E1,-4.577134848E-1,1.290662840E1
9.685394671E0,-7.177820206E-1,1.410404968E1,-1.026417494E0,1.415955371E1
9.703490983E0,-4.046425343E0,1.419246197E1,4.560553074E0,1.544662355E1
9.721599749E0,-4.464202404E0,1.071436119E1,6.100603104E0,1.311274178E1
9.739695878E0,-2.622338295E0,8.402716637E0,2.264547825E0,9.089030854E0
9.757792436E0,3.869522572E0,7.679985523E0,1.623332262E0,8.751605007E0
9.775888750E0,8.843267441E0,8.732780457E0,3.334209919E0,1.286785877E1
9.793985735E0,8.617001534E0,1.110404682E1,5.588044167E0,1.512543582E1
9.812081560E0,6.540919304E0,1.114539814E1,3.438575745E0,1.337263355E1
9.830178545E0,3.064829350E0,9.167005539E0,-5.669286728E0,1.120571200E1
9.848275468E0,1.446229100E0,8.025219917E0,-7.076716423E0,1.079702036E1
9.866371965E0,1.226129413E0,7.269433022E0,-3.339097738E0,8.093060206E0
9.884467790E0,5.973076820E-1,7.293113708E0,-7.572718859E-1,7.356612314E0
9.902564654E0,-2.492070198E-3,8.294724464E0,7.735820413E-1,8.330719616E0
9.920661272E0,-1.013416052E0,9.158306122E0,1.337232590E0,9.310734349E0
9.938757891E0,-2.826033592E0,9.318140030E0,8.629509807E-1,9.775422440E0
9.956854326E0,-4.941022873E0,9.190491676E0,-1.261281133E0,1.051045548E1
9.974950823E0,-5.507176876E0,9.536300659E0,-2.068306684E0,1.120481682E1
9.993047441E0,-4.500415802E0,9.813507080E0,-1.042332172E0,1.084643351E1
1.001114418E1,-3.561343193E0,9.402820587E0,5.263252258E-1,1.006842682E1
1.002924013E1,-2.642446995E0,8.594218254E0,1.628756285E0,9.137612410E0
1.004733675E1,-1.035767317E0,6.023222446E0,-5.306319714E0,8.093766211E0
1.006543318E1,5.670807838E0,1.294648170E0,-5.213689804E0,7.811321066E0
1.008352950E1,5.687849045E0,-1.542841244E1,1.592229080E1,2.288901224E1
1.010163008E1,5.502357006E0,-3.127029419E1,1.696571922E1,3.599920638E1
1.011972273E1,2.036264610E1,-4.165102005E1,1.142567921E1,4.774925102E1
1.013781990E1,3.077028656E1,-3.986444092E1,-1.695549583E1,5.313636254E1
1.015591646E1,2.435692978E1,-3.080651855E1,-2.677202988E1,4.752939298E1
1.017401247E1,1.181572437E1,-2.379650879E1,4.518644333E0,2.695001521E1
1.019210927E1,6.441650391E0,-1.200724411E1,3.794713497E0,1.414456155E1
1.021020570E1,3.210249424E0,-4.564244270E0,-1.886152029E0,5.890296818E0
1.022830239E1,3.070483208E-1,4.988670349E-3,-2.115416527E0,2.137589914E0
1.024639119E1,8.126382828E-1,5.395340919E0,-8.241565824E-1,5.518090131E0
1.026448323E1,-8.308879137E-1,8.012611389E0,2.011946440E0,8.303026224E0
1.028259194E1,-1.722162962E0,1.052765274E1,3.766993761E0,1.131315869E1
1.030068856E1,-1.513963938E-1,1.223761177E1,3.842549086E0,1.282759705E1
1.031878475E1,-6.825184226E-1,1.328279209E1,2.771642447E0,1.358603691E1
1.033686720E1,-5.289249420E-1,1.207815742E1,7.058891654E-2,1.208993925E1
1.035498055E1,-4.854420424E-1,1.066720390E1,2.146608114E0,1.089186942E1
1.037307497E1,-1.004297853E0,1.071818161E1,1.461484909E0,1.086388371E1
1.039117055E1,-1.849815845E0,1.083501625E1,3.049235940E-1,1.099601629E1
1.040926760E1,-1.914186120E0,1.028694725E1,9.146413803E-1,1.050342616E1
1.042736385E1,-4.553659558E-1,9.981058121E0,1.381540060E0,1.008650248E1
1.044545302E1,-4.058909416E-2,9.071302414E0,-3.004400134E-1,9.076367068E0
1.046355666E1,-8.191608191E-1,8.555768967E0,-2.422736406E0,8.929829716E0
1.048165041E1,-2.358226776E0,8.744389534E0,-3.186899185E0,9.601140988E0
1.049975386E1,-3.127941608E0,8.373819351E0,-2.309309721E0,9.232430916E0
1.051784706E1,-2.775672913E0,7.935558319E0,-7.322804928E-1,8.438819863E0
1.053594319E1,-2.121778965E0,8.466673851E0,7.401876450E-1,8.759816769E0
1.055403969E1,-1.695523262E0,1.006723499E1,2.435647726E0,1.049554188E1
1.057213606E1,-9.704056382E-1,1.092351818E1,3.334283829E0,1.146221555E1
1.059021864E1,-9.887378216E-1,1.096337509E1,1.455324888E0,1.110365554E1
1.060831990E1,-1.075577259E0,1.027452469E1,-2.339165211E0,1.059218664E1
1.062642531E1,2.896528244E-1,8.947052002E0,-8.389765739E0,1.226873292E1
1.064452242E1,5.285836697E0,5.443439960E0,-2.747023582E1,2.849885900E1
1.066261891E1,7.791869164E0,-7.453549385E0,8.100657463E0,1.348663319E1
1.068071260E1,3.413975239E0,-1.750692558E1,1.164153767E1,2.129960257E1
1.069881441E1,2.348733425E0,-3.799536514E1,2.530203629E1,4.570948874E1
1.071690663E1,1.220541954E1,-4.986822510E1,1.147565269E1,5.260705984E1
1.073500679E1,2.064904594E1,-3.902458954E1,-2.518442154E1,5.082870031E1
1.075310091E1,2.285781670E1,-2.905473900E1,-1.675347137E1,4.058739269E1
1.077119759E1,2.124064636E1,-1.631826401E1,-9.848748207E0,2.853854655E1
1.078929469E1,9.950402260E0,-8.754886627E0,-5.965926647E0,1.453447026E1
1.080739119E1,-9.184098840E-1,-4.873235703E0,3.111621618E0,5.854407914E0
1.082548714E1,-4.584506989E0,2.214111805E0,6.102523804E0,7.947376434E0
1.084358394E1,-4.460658550E0,8.546821594E0,4.114328384E0,1.048204809E1
1.086167757E1,-5.116531849E0,1.207177830E1,4.456341267E0,1.384794956E1
1.087977992E1,-6.376080036E0,1.332765579E1,4.918009758E0,1.557137199E1
1.089787312E1,-5.775605202E0,1.372204590E1,4.875938892E0,1.566610798E1
1.091596987E1,-5.155492306E0,1.306324768E1,4.224449635E0,1.466538495E1
1.093406667E1,-4.473685741E0,1.210311890E1,4.642655373E0,1.371326365E1
1.095216347E1,-4.369935989E0,1.094302845E1,3.680708885E0,1.234478959E1
1.097025936E1,-3.873744726E0,9.192922592E0,1.591388226E0,1.010189292E1
1.098835622E1,-3.671901703E0,7.792133331E0,-1.270400047E0,8.707130426E0
1.100645278E1,-3.334265232E0,7.502638817E0,-3.210323811E0,8.815502982E0
1.102454604E1,-2.600350142E0,7.906685829E0,-2.006478071E0,8.561743742E0
1.104264803E1,-2.080131531E0,8.214374542E0,-1.318434477E0,8.575614600E0
1.106074178E1,-1.942090154E0,8.163940430E0,-1.467247486E0,8.519064074E0
1.107883534E1,-2.264533043E0,8.315544128E0,-2.243989229E0,8.905721291E0
1.109693837E1,-2.532462597E0,8.724575996E0,-2.294334888E0,9.369928799E0
1.111503133E1,-2.039709330E0,9.491098404E0,-1.024778008E0,9.761738218E0
1.113311598E1,-8.941671848E-1,1.029954052E1,-3.488845527E-1,1.034416697E1
1.115122469E1,1.217748284E0,1.116102123E1,-4.524906874E-1,1.123637191E1
1.116932137E1,4.528195381E0,9.615978241E0,7.382457256E-1,1.065441682E1
1.118741762E1,8.608841896E0,4.060871124E0,-2.606430054E-1,9.522119924E0
1.120551436E1,4.189308167E0,-4.435205460E0,8.199377060E0,1.022013378E1
1.122360182E1,-3.085479736E-1,-2.617544174E1,1.553494835E1,3.043983529E1
1.124170449E1,-4.410131454E0,-4.020366669E1,1.668709946E1,4.375206695E1
1.125980617E1,2.650711298E0,-5.228269196E1,1.055588531E1,5.340349112E1
1.127790004E1,1.591594887E1,-2.925381470E1,-4.068103409E1,5.257422978E1
1.129599666E1,1.117948818E1,-2.619575882E1,-1.198607063E1,3.090088389E1
1.131409340E1,7.057430744E0,-1.597379589E1,1.150894260E1,2.091471357E1
1.133217830E1,3.137785196E0,-9.036385536E0,1.156336117E1,1.500710768E1
1.135028615E1,-1.670763493E0,-2.118181229E0,3.536630154E0,4.448133902E0
1.136838277E1,1.241753101E-1,5.110710144E0,-6.431082249E0,8.215448653E0
1.138647634E1,2.179217100E0,8.953770638E0,-6.006024361E0,1.099960565E1
1.140457851E1,8.812645078E-1,1.169793224E1,-2.453113317E0,1.198482419E1
1.142267195E1,1.616981030E0,1.338459587E1,-1.917200327E0,1.361755086E1
1.144076845E1,1.476807952E0,1.481404114E1,-2.859692812E0,1.515963784E1
1.145885359E1,1.537670016E0,1.437043571E1,7.929688692E-2,1.445268625E1
1.147695027E1,1.444263935E0,1.184157944E1,2.299872160E0,1.214900464E1
1.149505843E1,1.838652849E0,1.021935654E1,1.917850852E0,1.055907402E1
1.151315566E1,1.017137289E0,9.425951004E0,9.722709656E-1,9.530395135E0
1.153125051E1,1.797024608E-1,8.477802277E0,1.940389156E0,8.698881221E0
1.154934737E1,5.178135633E-1,8.394276619E0,2.671756744E0,8.824414708E0
1.156744405E1,3.888770938E-1,7.802783012E0,1.879176855E0,8.035294256E0
1.158554073E1,-2.694209218E-1,7.625987053E0,-2.871016860E-1,7.636143892E0
1.160363729E1,-3.177521825E-1,8.457932472E0,-3.410493612E0,9.125187934E0
1.162173317E1,-7.235186696E-1,8.947899818E0,-5.725003242E0,1.064725563E1
1.163983022E1,-6.805313826E-1,9.301675797E0,-5.754434586E0,1.095891477E1
1.165792684E1,-6.854593158E-1,9.717819214E0,-4.596796513E0,1.077201945E1
1.167602089E1,4.962086678E-1,7.944414139E0,-2.496123075E0,8.342096227E0
1.169412245E1,5.163885355E-1,9.335172653E0,-1.542173862E0,9.475779958E0
1.171221590E1,9.333350658E-1,9.733642578E0,-4.603786469E-1,9.789119505E0
1.173031258E1,3.085528612E0,8.406641006E0,-2.177537441E0,9.215951884E0
1.174840956E1,1.777450442E0,-1.505804062E0,-8.850548744E0,9.151993718E0
1.176650588E1,-5.981117725E0,-1.978068161E1,-7.080531120E-1,2.067729367E1
1.178460286E1,-3.197074890E0,-3.534867859E1,1.478087521E1,3.844768703E1
1.180269856E1,1.067049122E1,-4.635828400E1,1.514140224E1,4.992205865E1
1.182079555E1,2.715323257E1,-3.796668625E1,6.518074036E0,4.713016649E1
1.183889119E1,9.139746666E0,-2.034218025E1,-3.460282516E1,4.116667069E1
1.185698818E1,6.485843658E0,-2.269039917E1,-1.049860573E1,2.582907479E1
1.187508480E1,3.482444286E0,-1.541129589E1,1.242408657E1,2.009958672E1
1.189318129E1,-2.496048450E0,-5.509071350E0,-9.218421936E0,1.102539922E1
1.191126540E1,-2.066677570E0,1.481387138E0,-1.079057121E1,1.108612155E1
1.192937410E1,1.576176882E0,7.110813141E0,-2.557392836E0,7.719342926E0
1.194746077E1,2.144381285E0,1.195926189E1,-1.850366473E0,1.229008431E1
1.196556758E1,3.542744637E0,1.579638481E1,1.563044190E0,1.626406837E1
1.198364864E1,2.557974577E0,1.586960506E1,5.841764927E0,1.710303529E1
1.200176283E1,1.485709667E0,1.461787796E1,5.618169785E0,1.573065545E1
1.201985628E1,-1.497487128E-1,1.108993340E1,2.258858681E0,1.131863463E1
1.203795332E1,-2.372878790E-1,8.425732613E0,-1.462023854E0,8.554927782E0
1.205604915E1,-3.981817365E-1,8.358935356E0,-2.887415886E0,8.852543108E0
1.207414571E1,-1.009826183E0,7.821477413E0,-3.040572882E0,8.452238833E0
1.209222548E1,-1.610245943E0,7.264085770E0,-1.516457796E0,7.593383851E0
1.211033943E1,-2.090929031E0,7.343999863E0,-1.520757794E0,7.785821888E0
1.212843239E1,-3.005442381E0,7.201174736E0,-1.846448421E0,8.018664057E0
1.214653346E1,-3.865475178E0,7.257987022E0,-2.149223089E0,8.499378439E0
1.216463014E1,-3.437298059E0,7.178822517E0,-2.359534979E0,8.301681517E0
1.218272505E1,-3.240652561E0,8.251897812E0,-2.318891764E0,9.163673146E0
1.220082112E1,-1.192070842E0,1.036951733E1,-2.696657658E0,1.078053269E1
1.221890621E1,2.637773037E0,1.295112896E1,-2.350774050E0,1.342444511E1
1.223701424E1,6.227364540E0,1.152822876E1,-3.453019142E0,1.355003574E1
1.225511128E1,8.019900322E0,1.047224617E1,-5.865308762E0,1.443567068E1
1.227320729E1,9.189944267E0,7.781951904E0,1.652219296E0,1.215498580E1
1.229130403E1,1.363439751E1,1.687766075E0,4.143408775E0,1.434967547E1
1.230940029E1,4.901236534E0,-2.664507866E0,8.177533150E-1,5.638301359E0
1.232749678E1,-6.547248840E0,-2.900278091E1,1.098164368E1,3.169580833E1
1.234559328E1,-1.404668331E1,-5.156111908E1,1.823816299E1,5.646670614E1
1.236368953E1,-1.526496887E0,-4.805127716E1,5.281381607E0,4.836474358E1
1.238178328E1,1.867229652E1,-2.912269402E1,-2.664871788E1,4.366852561E1
1.239988606E1,2.271175766E1,-1.749923325E1,-1.563649654E1,3.265803308E1
1.241797908E1,1.412150192E1,-7.903306961E0,1.490267181E1,2.199928873E1
1.243607600E1,-5.212268829E-1,-6.542942047E0,1.415753651E1,1.560505072E1
1.245417256E1,-1.078658772E1,3.188428879E-1,-6.790170670E0,1.274984522E1
1.247226882E1,-1.403914571E0,5.935291767E0,-1.712628555E1,1.817988782E1
1.249036482E1,4.664880753E0,8.072527885E0,-6.778746605E0,1.152728175E1
1.250846205E1,4.522462368E0,1.197326851E1,-2.098050594E0,1.296972016E1
1.252655818E1,1.990389347E0,1.414903450E1,-7.747564316E-1,1.430933522E1
1.254465480E1,1.113686800E0,1.471080303E1,3.894860744E0,1.525837358E1
1.256275105E1,1.197099924E0,1.344814968E1,3.257900715E0,1.388883347E1
1.258084456E1,1.856071591E0,1.066109943E1,-9.843041897E-1,1.086613536E1
1.259894734E1,-1.346441031E0,9.694236755E0,-4.693014622E-1,9.798539360E0
1.261703877E1,-2.021059990E0,7.551549435E0,1.794139862E0,8.020568570E0
1.263513899E1,-3.345689058E0,5.969277382E0,1.521952391E0,7.010153124E0
1.265323348E1,-6.348327637E0,4.786087990E0,-1.241799474E0,8.046736479E0
1.267132997E1,-6.766267776E0,5.036401749E0,-2.880961895E0,8.913341889E0
1.268942830E1,-4.821005344E0,8.045181274E0,-2.366718292E0,9.673075506E0
1.270752272E1,-1.319981575E0,1.126024628E1,-5.636034012E0,1.266097851E1
1.272561922E1,1.575680971E0,1.035983467E1,-8.495184898E0,1.348988923E1
1.274371596E1,4.117412567E0,1.166182899E1,-4.768919945E0,1.325495904E1
1.276181282E1,9.251749992E0,6.779908180E0,-2.881241798E0,1.182639367E1
1.277990877E1,8.799249649E0,6.021421432E0,1.497177958E0,1.076688684E1
1.279800539E1,9.474121094E0,2.931857109E0,3.599357605E0,1.055036169E1
1.281610219E1,9.692842484E0,-3.387125015E0,2.374255657E-2,1.026763726E1
1.283419606E1,-5.275939941E0,-7.982915878E0,-1.044309139E0,9.625646460E0
1.285229732E1,-7.996600151E0,-3.840778351E1,1.047451210E1,4.060565049E1
1.287039125E1,-1.320464897E1,-5.649810791E1,1.789132118E1,6.071654079E1
1.288848781E1,1.840864182E0,-4.169461441E1,5.487256527E0,4.209441336E1
1.290658437E1,1.302827835E1,-1.845223999E1,-2.624488068E1,3.462679539E1
1.292466878E1,1.897816277E1,-1.052072811E1,-5.434609413E0,2.236942917E1
1.294277730E1,1.248836899E1,-5.581938744E0,1.292883110E1,1.882211661E1
1.296087416E1,1.884132624E-1,-1.575195312E0,1.551008940E0,2.218641152E0
1.297896864E1,-6.317979813E0,2.235156059E0,-1.171910858E1,1.350001102E1
1.299706819E1,2.426115274E-1,5.897476196E0,-8.459428787E0,1.031508707E1
1.301516292E1,1.504603744E0,1.190497780E1,-5.057106972E0,1.302177637E1
1.303325936E1,3.281729698E0,1.416599560E1,-5.097692490E0,1.540881727E1
1.305135658E1,2.419418573E0,1.425648403E1,8.999232054E-1,1.448829821E1
1.306945241E1,5.996041298E-1,1.107396126E1,6.073451042E0,1.264432484E1
1.308754842E1,-1.647984505E0,7.683722973E0,5.215845108E0,9.431886971E0
1.310564699E1,-3.630774021E0,7.540627480E0,1.169297695E0,8.450493469E0
1.312374050E1,-5.003441334E0,9.495556831E0,-1.338944554E0,1.081632087E1
1.314183791E1,-5.505470753E0,8.399002075E0,-3.618609905E-2,1.004264674E1
1.315993471E1,-2.188659430E0,6.388314724E0,1.705713749E0,6.964930330E0
1.317803133E1,-6.089044809E-1,6.531606674E0,3.004702568E0,7.215323135E0
1.319612825E1,-2.546464920E0,7.062101364E0,8.392790556E-1,7.553949206E0
1.321422414E1,-4.019588470E0,8.777137756E0,-3.036274433E0,1.011999017E1
1.323232112E1,-3.462377787E0,1.110052586E1,-5.893472672E0,1.303620935E1
1.325041731E1,-5.084885359E-1,1.166125107E1,-4.892982483E0,1.265640607E1
1.326851412E1,2.239832163E0,9.361132622E0,-2.181328297E0,9.869439965E0
1.328661037E1,4.108899593E0,9.846969604E0,-9.747285247E-1,1.071428775E1
1.330470644E1,4.402873993E0,9.598201752E0,-6.675080061E-1,1.058094245E1
1.332280300E1,5.330377579E0,8.986842155E0,2.495095253E0,1.074252100E1
1.334089955E1,8.410222054E0,6.612006187E0,4.037856579E0,1.143480418E1
1.335899318E1,3.190206051E0,-3.769518852E0,-2.172717452E-1,4.943065247E0
1.337709261E1,-2.807570457E0,-2.583590698E1,2.084908724E0,2.607150525E1
1.339518910E1,5.331332207E0,-3.030068207E1,2.006537628E1,3.673110075E1
1.341328572E1,4.354781151E0,-3.210445786E1,-3.013885498E0,3.253834413E1
1.343137874E1,2.037074327E0,-2.851418686E1,-1.738256264E1,3.345686787E1
1.344947579E1,1.053748989E1,-1.873440170E1,1.019089222E1,2.378803869E1
1.346756300E1,8.468899727E0,-1.262386894E1,1.362806416E1,2.041588750E1
1.348567147E1,1.400727987E0,-1.254970264E1,3.828793287E0,1.319532998E1
1.350376784E1,-3.344134569E0,-6.043605804E0,-6.610764980E0,9.560890166E0
1.352185292E1,-4.287652969E-1,-1.052709579E0,-8.824403763E0,8.897310768E0
1.353996102E1,8.095515251E0,2.411345482E0,-6.515192032E0,1.066769335E1
1.355805770E1,9.961551666E0,7.593466282E0,-6.791472912E0,1.424841556E1
1.357615340E1,8.153755188E0,9.414205551E0,-8.338915825E0,1.498827899E1
1.359425008E1,1.908872247E0,1.027589035E1,-7.845659733E0,1.306874487E1
1.361234542E1,-6.758489609E-1,1.094557953E1,-1.241610646E-1,1.096712811E1
1.363044441E1,-8.241422772E-1,1.187085819E1,3.077860594E0,1.229104188E1
1.364853932E1,-6.789777279E-1,1.174765205E1,2.102684021E0,1.195364462E1
1.366662410E1,-1.511263490E0,1.082441711E1,3.917738438E0,1.161036596E1
1.368473250E1,-1.427504778E0,9.240544319E0,3.754080534E0,1.007564141E1
1.370282942E1,-2.447193861E0,7.481108665E0,3.543401957E0,8.632001047E0
1.372092531E1,-4.364178181E0,5.912961483E0,4.637283325E0,8.689853930E0
1.373902205E1,-5.500255585E0,5.097194195E0,3.552095890E0,8.297685543E0
1.375710622E1,-7.065588951E0,6.856063366E0,-1.709644890E1,1.972857615E1
1.377521462E1,-1.267774224E0,1.082796574E1,-1.524854755E1,1.874487386E1
1.379331056E1,1.454444051E0,1.223999023E1,-6.350729465E0,1.386594869E1
1.381139559E1,6.293204308E0,9.327454567E0,3.148140907E-1,1.125632876E1
1.382950423E1,5.496323586E0,8.563696861E0,-2.808775902E-1,1.017965467E1
1.384760097E1,1.502954125E0,6.051357746E0,-3.380228758E0,7.092513527E0
1.386569496E1,-2.095137119E0,1.736974716E0,-8.247729301E0,8.685143599E0
1.388379494E1,1.526556015E-1,-6.841133118E0,8.279347420E0,1.074113587E1
1.390188960E1,8.701217651E0,-3.072084808E1,8.479103088E0,3.303599378E1
1.391998683E1,3.641044617E0,-3.573110962E1,-6.495598555E-1,3.592201732E1
1.393808254E1,4.619400978E0,-3.127793884E1,-1.285989475E1,3.413246573E1
1.395617439E1,1.561140251E1,-2.438296127E1,-6.282904625E0,2.962633253E1
1.397427602E1,1.682338333E1,-1.605463982E1,-2.014905214E0,2.334175506E1
1.399237288E1,9.720923424E0,-1.030412388E1,-2.560018063E0,1.439531221E1
1.401046852E1,2.922964096E-2,-7.504793167E0,-7.113872528E0,1.034069423E1
1.402856508E1,-3.012418747E0,-3.920812607E0,-7.187384605E0,8.723871599E0
1.404665895E1,-3.512325287E0,7.814579010E-1,2.034354210E-1,3.603954958E0
1.406476119E1,-5.775430202E0,4.778419971E0,4.223697662E0,8.603982415E0
1.408285420E1,-7.858165264E0,6.321394920E0,5.784081459E0,1.162610826E1
1.410095082E1,-7.337930679E0,9.406831741E0,6.149693966E0,1.342208799E1
1.411904329E1,-5.234585285E0,1.071576500E1,6.642150402E0,1.365088512E1
1.413714443E1,-4.285214424E0,1.126306725E1,6.853230476E0,1.386313509E1
1.415524007E1,-3.453959942E0,1.094154739E1,7.280013084E0,1.358844690E1
1.417333699E1,-3.140320778E0,1.051709270E1,6.868850231E0,1.294804839E1
1.419143410E1,-2.647531986E0,9.628833771E0,5.254176617E0,1.128407007E1
1.420952950E1,-2.137860775E0,8.447287560E0,2.858836412E0,9.170608564E0
1.422762569E1,-1.543755531E0,7.684843063E0,-2.368712425E-2,7.838402588E0
1.424570595E1,-1.016749263E0,7.668104172E0,-1.489031553E0,7.877234008E0
1.426381887E1,-9.979617596E-2,7.615319252E0,-1.782049537E0,7.821684418E0
1.428190914E1,1.220450640E0,8.074837685E0,-2.995601416E0,8.698628124E0
1.430001174E1,1.934494734E0,8.648723602E0,-5.415929794E0,1.038628833E1
1.431810506E1,2.212235451E0,9.749769211E0,-6.994648457E0,1.220152009E1
1.433620497E1,1.601862907E0,9.725628853E0,-6.681859970E0,1.190802561E1
1.435430159E1,8.679971695E-1,8.676106453E0,-3.876360655E0,9.542243667E0
1.437239778E1,-5.310320854E-2,6.990251064E0,-5.403900743E-1,7.011308817E0
1.439049446E1,1.000252008E0,6.642440319E0,5.116479993E-1,6.736787153E0
1.440859084E1,3.005419016E0,4.475539684E0,1.673777103E0,5.644867467E0
1.442668733E1,1.120364189E1,-2.335518837E0,-1.957194519E1,2.267239022E1
1.444476552E1,9.528056145E0,-1.251934910E1,7.708534241E0,1.751968767E1
1.446288045E1,-3.215221643E0,-3.935505676E1,1.066830921E1,4.090196773E1
1.448097371E1,-1.564448738E1,-4.293992996E1,-3.215344906E0,4.581403730E1
1.449907649E1,2.828953743E0,-3.650466919E1,-3.603559732E0,3.679102465E1
1.451716921E1,2.187579155E1,-2.063515854E1,-5.118804455E0,3.050511732E1
1.453526607E1,1.849613380E1,-1.315998745E1,6.792177677E0,2.369442789E1
1.455336238E1,7.877656937E0,-9.714662552E0,1.881496429E0,1.264801076E1
1.457145882E1,-1.414924860E0,-5.216656685E0,-2.870413303E0,6.120032015E0
1.458955501E1,-4.223796129E-1,-1.781079292E0,-2.730379343E0,3.287190189E0
1.460764949E1,5.778992653E0,3.184316158E0,-8.961582184E0,1.112863786E1
1.462574776E1,7.677959919E0,9.226613998E0,-1.196685886E1,1.694954824E1
1.464384493E1,5.974111557E0,1.230560875E1,-1.180521011E1,1.806878528E1
1.466194094E1,9.772927761E-1,1.222245312E1,-4.735257626E0,1.314405288E1
1.468003737E1,-2.870638847E0,8.658935547E0,3.636298418E0,9.820407241E0
1.469813387E1,-3.985403776E0,6.285881042E0,7.431472778E0,1.051772463E1
1.471623085E1,-3.914644241E0,7.510208130E0,6.571805477E0,1.071990172E1
1.473432656E1,-3.129569769E0,8.992820740E0,3.661941051E0,1.020170790E1
1.475242317E1,-4.030540466E0,9.309283257E0,5.047649145E-1,1.015690892E1
1.477051955E1,-5.714991570E0,8.661714554E0,4.247045815E-1,1.038589436E1
1.478861659E1,-5.608701706E0,8.261894226E0,1.834241629E0,1.015287513E1
1.480671248E1,-6.185314178E0,7.978238106E0,1.246961832E0,1.017178984E1
1.482480593E1,-7.920243263E0,7.451601028E0,-7.069076300E-1,1.089753778E1
1.484290682E1,-7.904065132E0,8.871826172E0,-2.414801717E-1,1.188452178E1
1.486100460E1,-6.440855980E0,1.010504818E1,6.697348356E-1,1.200188190E1
1.487909468E1,-5.114066124E0,1.014340401E1,-1.854285002E-1,1.136119276E1
1.489719759E1,-1.975668192E0,9.644944191E0,-3.418946266E0,1.042196751E1
1.491529134E1,2.141015530E0,1.047647381E1,-2.962953091E0,1.109592457E1
1.493338814E1,5.988540649E0,1.038484192E1,-1.009433389E0,1.203023344E1
1.495148342E1,7.403087616E0,9.731049538E0,2.817191362E0,1.254733432E1
1.496958040E1,6.035584450E0,8.112851143E0,5.898599625E0,1.170641324E1
1.498767708E1,4.577237129E0,2.395770550E0,6.377848148E0,8.207786746E0
1.500577352E1,2.402347565E0,-9.885239601E0,7.159726620E0,1.243989233E1
1.502386946E1,2.152677536E1,-2.787592316E1,-3.938375473E1,5.283511414E1
1.504196736E1,1.050761414E1,-3.235526657E1,1.240777111E1,3.621085491E1
1.506006185E1,-9.737440109E0,-4.496721268E1,-1.955296326E1,4.999186262E1
1.507815950E1,2.113551140E0,-3.482148743E1,-5.296024799E0,3.528527970E1
1.509625545E1,1.116547871E1,-2.392603302E1,-3.624163866E0,2.665065730E1
1.511435207E1,1.372655487E1,-1.808628654E1,-2.060294151E-3,2.270533140E1
1.513244838E1,5.716509819E0,-9.344767570E0,3.539070606E0,1.151208870E1
1.515054506E1,2.259768724E0,-2.026230812E0,1.418398857E0,3.350227053E0
1.516864113E1,3.106169224E0,3.318045616E0,1.240498543E0,4.711321534E0
1.518673806E1,5.163874626E0,5.204922676E0,-2.015979290E-1,7.334675381E0
1.520483412E1,7.327493429E-1,9.225866318E0,-6.449784279E0,1.128065814E1
1.522293074E1,1.045856714E0,1.024157715E1,-1.102063560E1,1.508105195E1
1.524102699E1,2.918357849E0,1.181436062E1,-6.862078667E0,1.397082864E1
1.525912081E1,-1.623813391E0,9.263504982E0,9.703691006E-1,9.454676656E0
1.527722304E1,-5.353920460E0,8.369016647E0,3.436054707E0,1.051243910E1
1.529531703E1,-5.890256405E0,9.518497467E0,3.938056469E0,1.186613683E1
1.531341280E1,-4.152683258E0,9.189997673E0,4.882903099E0,1.120462307E1
1.533150917E1,-3.727859259E0,7.740899563E0,4.932491302E0,9.906963770E0
1.534960561E1,-4.525164604E0,6.822194099E0,7.540768385E-1,8.221196926E0
1.536769197E1,-6.006490707E0,8.450479507E0,-1.601880312E0,1.049068897E1
1.538579836E1,-7.101183891E0,9.597840309E0,-2.529024124E0,1.220415152E1
1.540389485E1,-5.627415657E0,1.040464306E1,-1.546468735E0,1.192962572E1
1.542199141E1,-4.047688961E0,1.149868298E1,-3.587096930E-2,1.219035614E1
1.544008864E1,-2.711586952E0,1.081795120E1,9.874321222E-1,1.119624018E1
1.545818416E1,-1.581172466E0,1.017074871E1,1.624273300E0,1.042029268E1
1.547628078E1,-2.083873749E-1,9.921157837E0,1.647311449E-1,9.924713319E0
1.549437734E1,3.504459858E-1,1.044071007E1,-1.751507998E0,1.059240385E1
1.551247396E1,5.313105583E-1,1.065595245E1,-3.705009937E0,1.129418931E1
1.553056941E1,8.890709877E-1,9.345806122E0,-4.412362576E0,1.037320986E1
1.554866628E1,6.932435036E-1,7.780807972E0,-3.017293930E0,8.374104245E0
1.556676277E1,6.519598961E-1,6.421527863E0,-1.361274719E0,6.596524892E0
1.558484096E1,2.018667698E0,6.086379051E0,1.045391202E0,6.497066415E0
1.560295534E1,4.101818562E0,3.220351219E0,-1.837010860E0,5.529031234E0
1.562104012E1,2.712515831E0,-1.072485256E1,-1.480311584E1,1.848005528E1
1.563914876E1,6.848802567E-1,-2.877495956E1,6.511984348E0,2.951056250E1
1.565724550E1,2.438345909E0,-4.759227753E1,2.624091148E1,5.440180003E1
1.567534114E1,6.806968689E0,-4.668471909E1,-1.610559082E1,4.985165869E1
1.569343776E1,8.347886086E0,-3.861589050E1,-1.429087353E1,4.201313209E1
1.571153450E1,1.751874733E1,-2.129710007E1,3.845498800E0,2.784350625E1
1.572963118E1,1.324520111E1,-1.306400681E1,-1.819375753E0,1.869261229E1
1.574771919E1,5.597170353E0,-9.641524315E0,1.358763814E0,1.123091920E1
1.576582393E1,3.680550098E0,-5.004693985E0,-2.444637775E0,6.676051585E0
1.578391201E1,2.901961088E0,1.373863220E-1,-4.786032200E0,5.598781776E0
1.580201680E1,4.399533272E-1,4.045813560E0,-4.974020481E0,6.426744591E0
1.582009480E1,6.027407646E-1,7.106656551E0,-5.120945454E0,8.780201940E0
1.583820937E1,1.641135216E0,1.236613846E1,-3.986391068E0,1.309603065E1
1.585630574E1,1.227943182E0,1.469681168E1,-3.256595135E0,1.510329533E1
1.587440242E1,1.701550484E-1,1.291522694E1,1.602048874E-1,1.291734126E1
1.589249831E1,-1.795887589E0,1.033451557E1,2.744396210E0,1.084246904E1
1.591059511E1,-3.511197805E0,8.440833092E0,2.160171032E0,9.393748570E0
1.592869136E1,-5.093966961E0,7.914269447E0,9.080035686E-1,9.455613717E0
1.594678822E1,-5.270016670E0,8.750692368E0,7.737672329E-1,1.024433543E1
1.596488411E1,-4.270647049E0,9.161155701E0,1.495130181E0,1.021766188E1
1.598298647E1,-4.283533096E0,8.814658165E0,2.774393082E0,1.018548533E1
1.600107710E1,-4.964345932E0,8.401568413E0,1.894854546E0,9.940903182E0
1.601916322E1,-5.446449280E0,8.136139870E0,-3.866370916E-1,9.798472839E0
1.603726985E1,-4.254270077E0,8.206812859E0,-1.482091427E0,9.362007593E0
1.605536653E1,-2.482295990E0,8.411453247E0,1.975090802E-1,8.772305794E0
1.607346273E1,-1.572322607E0,9.115404129E0,2.109343529E0,9.487471789E0
1.609155940E1,-1.872191668E0,1.037392235E1,1.410920262E0,1.063550951E1
1.610965560E1,-1.416232944E0,1.111961842E1,-1.523285389E0,1.131247222E1
1.612774245E1,-3.341807127E-1,1.138192177E1,-3.140483618E0,1.181196246E1
1.614584847E1,8.098192215E-1,1.016393089E1,-1.587355852E0,1.031896298E1
1.616394545E1,2.011757374E0,9.333317757E0,-7.416162640E-2,9.547957270E0
1.618204134E1,2.139266491E0,9.242471695E0,1.588393211E0,9.618874006E0
1.620013765E1,3.372537136E0,8.208972931E0,5.512665749E0,1.044752253E1
1.621823421E1,7.248317719E0,1.513502598E0,8.455970764E0,1.123976163E1
1.623633126E1,8.039024353E0,-1.660426903E1,-6.859494686E0,1.968197983E1
1.625442684E1,2.291960716E0,-3.625092316E1,1.918754578E1,4.107973255E1
1.627252345E1,5.657791138E0,-4.245012665E1,1.271846294E1,4.467418889E1
1.629061971E1,1.000228405E1,-3.821729279E1,-5.514652634E1,6.783617413E1
1.630871663E1,7.813547134E0,-2.923104477E1,3.059654713E0,3.041162580E1
1.632681252E1,1.201703358E1,-1.035803699E1,5.482990265E0,1.678574421E1
1.634491017E1,3.866981030E0,-8.151730537E0,4.401601791E0,1.003884213E1
1.636300209E1,-3.322981834E0,-5.720273018E0,5.484964371E0,8.593518826E0
1.638110243E1,-3.052705765E0,-8.691387177E-1,4.352552414E0,5.386940422E0
1.639920046E1,-4.035874605E-1,2.072091103E0,3.325318098E0,3.938805000E0
1.641729244E1,6.005683899E0,8.128614426E-1,-5.098420382E-1,6.081851833E0
1.643539376E1,9.471895218E0,7.171268463E-1,-6.600658417E0,1.156718468E1
1.645348793E1,7.633868217E0,6.172954559E0,-1.446109200E1,1.747868684E1
1.647158351E1,7.054734230E0,9.726241112E0,-9.706876755E0,1.544643964E1
1.648968050E1,2.586149216E0,9.108727455E0,-2.875267506E0,9.895668085E0
1.650777669E1,-1.786681771E0,8.181751251E0,6.478422880E-1,8.399582425E0
1.652587337E1,-3.978730202E0,8.044377327E0,2.419653177E0,9.294999844E0
1.654396864E1,-4.598442078E0,9.397662163E0,9.166761637E-1,1.050247680E1
1.656205379E1,-4.465544701E0,9.777444839E0,5.700432062E-1,1.076403578E1
1.658016225E1,-4.366682529E0,9.932497025E0,2.276521206E0,1.108625105E1
1.659825948E1,-4.936380386E0,9.237776756E0,4.871731758E0,1.155154280E1
1.661635219E1,-6.451959133E0,8.701704025E0,3.948022127E0,1.152971415E1
1.663445430E1,-7.746069908E0,8.620522499E0,2.631666064E-1,1.159242269E1
1.665254817E1,-6.408291817E0,9.147650719E0,-1.259219289E0,1.123972201E1
1.667064467E1,-2.994307518E0,9.737834930E0,-2.515467405E-1,1.019090685E1
1.668872933E1,1.054345131E0,1.087218094E1,-6.020491719E-1,1.093976349E1
1.670683718E1,4.603263855E0,1.142870903E1,-6.203624606E-1,1.233654238E1
1.672493367E1,5.135401249E0,1.084395409E1,-6.877011061E-2,1.199868391E1
1.674303060E1,4.754974842E0,9.990118980E0,2.332476854E0,1.130719732E1
1.676112630E1,9.251251221E-1,9.392716408E0,-5.600205660E-1,9.454766049E0
1.677922035E1,-2.157665730E0,7.459553719E0,-1.358342838E1,1.564640501E1
1.679731770E1,5.245327950E0,1.479006767E0,6.739077091E0,8.666953695E0
1.681542067E1,-1.435844421E1,-2.327468491E1,1.266962719E1,3.013959739E1
1.683351167E1,-6.214941978E0,-5.886080170E1,2.887313461E1,6.585497235E1
1.685160860E1,2.744069862E1,-5.157841492E1,-3.978123856E1,7.068148108E1
1.686970271E1,2.511617851E1,-3.898751831E1,-1.966606522E1,5.037462782E1
1.688780379E1,1.484323883E1,-2.674424362E1,-3.514255524E0,3.078841174E1
1.690589742E1,8.993597031E0,-1.613633347E1,6.873642921E0,1.971073343E1
1.692398256E1,-2.891209841E0,-9.050455093E0,5.375365257E0,1.091624401E1
1.694209059E1,-6.948504925E0,-5.852470398E0,-2.589393139E0,9.446591305E0
1.696017122E1,2.189507723E0,-9.382362366E-1,-8.559834957E-1,2.531193207E0
1.697828353E1,3.770496368E0,4.418767929E0,1.420748711E0,5.980023392E0
1.699637990E1,2.761449337E0,8.696866989E0,6.878030300E-1,9.150637731E0
1.701447640E1,2.940114975E0,1.290268326E1,-3.092649460E0,1.358999603E1
1.703256972E1,3.386177301E0,1.406869888E1,-6.988795757E0,1.606977757E1
1.705067201E1,2.274071217E0,9.813480377E0,-3.513120890E0,1.066854326E1
1.706876515E1,4.618928432E-1,7.076937675E0,-7.935256958E-1,7.136250759E0
1.708685091E1,-4.081921577E0,7.236032486E0,-1.611725807E0,8.462854718E0
1.710495833E1,-7.771803856E0,6.656797409E0,-2.769209146E-1,1.023672663E1
1.712305440E1,-8.139442444E0,6.308124542E0,1.338294625E0,1.038431466E1
1.714115120E1,-7.508989811E0,7.375370502E0,1.940619946E0,1.070266433E1
1.715924764E1,-8.231426239E0,7.723653793E0,1.906671524E0,1.144755879E1
1.717734413E1,-8.260899544E0,8.349645615E0,1.603985071E0,1.185461139E1
1.719543978E1,-6.151961327E0,8.939199448E0,9.644553065E-1,1.089431452E1
1.721353645E1,-4.933581829E0,9.629074097E0,5.952587128E-1,1.083575704E1
1.723163289E1,-3.807088137E0,1.060411930E1,1.064923048E0,1.131703704E1
1.724972359E1,-2.713622570E0,1.144012165E1,2.132995367E0,1.194946861E1
1.726782576E1,-1.431119442E0,1.135996246E1,1.257195950E0,1.151856726E1
1.728592250E1,1.846292019E-1,9.618585587E0,-2.638232231E0,9.975547400E0
1.730401522E1,2.560341120E0,1.000951195E1,-4.705738068E0,1.135295763E1
1.732211891E1,6.783807755E0,9.665185928E0,-4.204617977E0,1.253453944E1
1.734021095E1,1.035637665E1,9.874661446E0,5.752417445E-1,1.432111654E1
1.735830794E1,1.060248184E1,1.009122086E1,4.907678127E0,1.543796179E1
1.737640419E1,1.009096622E1,7.188297272E0,5.124832630E0,1.340757720E1
1.739450093E1,8.728989601E0,-5.220514297E0,-2.240137291E1,2.460224659E1
1.741259682E1,-1.096464252E1,-3.369592285E1,-5.362389684E-1,3.543904845E1
1.743069069E1,-2.410943508E-1,-4.884719086E1,2.401569748E1,5.443215875E1
1.744879262E1,1.071003532E1,-4.950758362E1,-3.818146944E0,5.079649534E1
1.746688338E1,2.250070572E0,-3.525189972E1,-4.030054092E1,5.359004432E1
1.748498518E1,1.215165329E1,-2.551919556E1,8.208956718E0,2.943261779E1
1.750307894E1,6.525263786E0,-1.118003273E1,6.101683617E0,1.431093087E1
1.752117513E1,-1.200830340E0,-9.970665932E0,-4.553749561E-1,1.005303631E1
1.753926033E1,-2.306684017E0,-5.190336227E0,-3.105156183E0,6.473204479E0
1.755736556E1,3.064476013E0,1.879122257E0,-2.589615583E0,4.430374991E0
1.757546334E1,3.229285717E0,6.046945095E0,-1.217605233E0,6.962499101E0
1.759356111E1,5.362286568E0,7.533961296E0,1.439555645E0,9.358793218E0
1.761165633E1,6.829407215E0,1.067210960E1,-1.281094551E-1,1.267087757E1
1.762975478E1,7.602633953E0,1.443589497E1,-4.836951256E0,1.701737947E1
1.764783870E1,5.054092407E0,1.253534889E1,-5.844604492E0,1.472542779E1
1.766594631E1,-6.064651608E-1,8.588368416E0,-3.611454248E0,9.336512937E0
1.768403182E1,-6.897365093E0,8.419034958E0,4.444032907E-1,1.089271725E1
1.770213918E1,-6.836709976E0,6.334780693E0,2.758828163E0,9.720143135E0
1.772023592E1,-8.185189247E0,5.834769726E0,2.540891409E0,1.036812374E1
1.773833211E1,-8.293284416E0,7.196840286E0,1.287897587E0,1.105584717E1
1.775642855E1,-6.870290756E0,9.006320953E0,5.690966249E-1,1.134189504E1
1.777452590E1,-4.688714027E0,1.013823414E1,6.584070325E-1,1.118934004E1
1.779262099E1,-3.404675484E0,9.969548225E0,-4.843560755E-1,1.054600909E1
1.781070662E1,-2.891394377E0,9.877504349E0,-2.185409069E0,1.052146693E1
1.782881404E1,-2.519602299E0,1.013373470E1,-1.743582606E0,1.058683404E1
1.784690993E1,-1.029935956E0,1.149824715E1,1.807900667E-1,1.154569792E1
1.786500661E1,2.200820446E0,1.180877304E1,9.261687398E-1,1.204775995E1
1.788310060E1,5.004127026E0,1.034665775E1,6.021754146E-1,1.150900644E1
1.790120284E1,7.115486622E0,1.022224331E1,4.361304939E-1,1.246252855E1
1.791929573E1,6.372427464E0,8.931151390E0,1.047541261E0,1.102137195E1
1.793738576E1,7.738461971E0,4.622971535E0,1.724851131E0,9.177732341E0
1.795548860E1,8.434766769E0,-1.602639198E0,4.913732529E0,9.892346042E0
1.797358553E1,2.733104229E-1,-1.528971195E1,-1.390879154E1,2.067134423E1
1.799168123E1,2.801039219E0,-3.523122025E1,6.292667866E0,3.589822237E1
1.800977785E1,1.741986275E0,-4.012598801E1,3.065520477E1,5.052594392E1
1.802787410E1,1.748797798E1,-3.115387726E1,-5.320195007E1,6.408463883E1
1.804597109E1,1.698458672E0,-2.885068893E1,1.054887414E0,2.891988591E1
1.806406667E1,6.467822552E0,-1.779636192E1,7.413561821E0,2.033480084E1
1.808216365E1,7.771301270E0,-9.586192131E0,1.005436301E0,1.238140158E1
1.810025710E1,4.009819031E0,-3.721121788E0,1.768882871E0,5.749290620E0
1.811835951E1,4.263875008E0,1.005819321E0,5.512843132E0,7.041572409E0
1.813645216E1,1.763427258E0,4.261360168E0,3.619612694E0,5.862632705E0
1.815454891E1,1.319289207E0,4.671291351E0,-4.291538715E0,6.479104216E0
1.817264534E1,5.901766300E0,7.981498241E0,-1.220721912E1,1.573376491E1
1.819074269E1,4.605452061E0,1.047464371E1,-2.449270725E0,1.170159291E1
1.820883772E1,4.402992725E0,1.016995239E1,-1.883872747E-1,1.108376138E1
1.822693434E1,1.569451094E0,1.060068035E1,-5.575306416E0,1.207980307E1
1.824503108E1,-7.386420250E0,6.130911827E0,-3.912569761E0,1.036607380E1
1.826312471E1,-6.890215874E0,8.081237793E0,2.994605064E0,1.103399921E1
1.828122609E1,-7.756246567E0,8.912151337E0,4.323238850E0,1.258078680E1
1.829932027E1,-8.633726120E0,7.219566822E0,4.636051178E0,1.217194900E1
1.831741640E1,-7.747885227E0,7.605479717E0,5.052224636E0,1.197489127E1
1.833550130E1,-5.337756634E0,8.706137657E0,4.522160530E0,1.116863531E1
1.835359688E1,-2.839356899E0,9.912850380E0,3.045626879E0,1.075185534E1
1.837170595E1,-2.314787149E0,1.099591064E1,8.373460174E-1,1.126807165E1
1.838980202E1,-3.078140736E0,1.224330902E1,2.082399726E-1,1.262604174E1
1.840788655E1,-1.734637618E0,1.304088783E1,-1.521550894E0,1.324344518E1
1.842599452E1,1.827099919E0,1.187976646E1,-2.182420492E0,1.221597743E1
1.844409133E1,4.009972572E0,1.076460743E1,-1.058778048E0,1.153592927E1
1.846218727E1,6.786732674E0,9.989343643E0,-2.400862694E0,1.231303653E1
1.848028414E1,8.694284439E0,9.644004822E0,-6.655318737E0,1.459077374E1
1.849838008E1,1.304181862E1,2.590561390E0,-1.633611870E1,2.106344737E1
1.851646468E1,1.445914030E0,-2.999151993E1,-2.617616177E0,3.014023639E1
1.853456081E1,-1.169415951E1,-5.243028259E1,1.809336281E1,5.668383965E1
1.855266976E1,1.222318172E1,-4.445638275E1,-1.489447021E1,4.845225879E1
1.857076564E1,8.604053497E0,-3.326900101E1,-1.887432861E1,3.920582157E1
1.858886238E1,1.031391239E1,-2.352120590E1,4.997009277E0,2.616474761E1
1.860695845E1,2.424836636E0,-1.209537697E1,-2.348684788E0,1.255763899E1
1.862505495E1,2.236909866E-1,-8.787382126E0,-5.875391006E0,1.057300060E1
1.864314943E1,-2.251003981E0,4.201545715E-1,-1.233239770E0,2.600851613E0
1.866123689E1,-1.859861493E0,8.460100174E0,3.135151863E0,9.212033268E0
1.867934828E1,-7.350005150E0,1.182328224E1,6.134169102E0,1.521317223E1
1.869744045E1,-1.122080135E1,1.244465065E1,6.689652443E0,1.804237131E1
1.871553639E1,-1.187671852E1,8.619099617E0,8.439043045E0,1.692816495E1
1.873363314E1,-1.071153069E1,5.586145878E0,8.864805222E0,1.498421459E1
1.875172932E1,-6.599857330E0,4.943242073E0,9.436888695E0,1.253190437E1
1.876982631E1,-2.724587917E-1,6.864582539E0,9.014793396E0,1.133416195E1
1.878792214E1,5.455784321E0,8.715673447E0,3.927409649E0,1.100695656E1
1.880601888E1,5.691324711E0,8.247952461E0,-6.378479004E0,1.187875798E1
1.882411501E1,3.230832815E-1,5.989432335E0,-6.932727814E0,9.167354986E0
1.884221175E1,-2.178536177E0,5.528134823E0,-3.277243137E0,6.785765769E0
1.886030763E1,-2.961898088E0,6.830078125E0,-9.182810783E-2,7.445215906E0
1.887840438E1,-1.623609424E0,9.922998428E0,5.428453684E-1,1.006959217E1
1.889650057E1,9.754198790E-1,1.378000546E1,-1.524579287E0,1.389835732E1
1.891459682E1,3.026586771E0,1.421221161E1,-3.938428402E0,1.505517866E1
1.893268117E1,5.872436523E0,1.331453323E1,-3.054975986E0,1.486926979E1
1.895078963E1,8.644207954E0,9.529391289E0,3.391052008E0,1.330529456E1
1.896888600E1,7.670130253E0,2.824686050E0,1.218926430E1,1.467610008E1
1.898698268E1,7.906409264E0,-8.822240829E0,9.796549797E0,1.537256090E1
1.900507863E1,-5.837223530E0,-3.887026978E1,-6.103399277E0,3.977716096E1
1.902317537E1,6.646060944E-2,-3.780785370E1,-8.067815304E-1,3.781651907E1
1.904127156E1,3.558001041E0,-3.215596771E1,-3.625599289E1,4.859179613E1
1.905936403E1,1.905581951E0,-2.379656219E1,-1.132564354E1,2.642305464E1
1.907746797E1,5.137117386E0,-1.251944447E1,7.185800552E0,1.532195139E1
1.909556038E1,3.160284996E0,-6.164805412E0,1.191893387E1,1.378597880E1
1.911365682E1,9.635198116E-1,-1.827385902E0,1.415372944E1,1.430369766E1
1.913175344E1,3.339078426E-1,2.460341930E0,9.564616203E0,9.881632455E0
1.914983766E1,3.253220081E0,4.580347538E0,1.808392048E0,5.901974777E0
1.916795168E1,2.506328583E0,8.541946411E0,-9.194721222E0,1.279802445E1
1.918604256E1,1.902834654E0,1.031162453E1,-1.703832054E1,2.000636766E1
1.920413637E1,-7.201357484E-1,1.059660149E1,-9.095764160E0,1.398354334E1
1.922223775E1,-2.107204437E0,8.672286034E0,4.881834984E-1,8.937962783E0
1.924033144E1,-3.378787756E0,8.241541862E0,1.276559949E0,8.998267849E0
1.925842800E1,-4.322878361E0,8.194478989E0,8.610922694E-1,9.304743044E0
1.927652431E1,-4.963496685E0,7.735480785E0,2.230996609E0,9.457870172E0
1.929460475E1,-6.033597946E0,8.068225861E0,4.014327049E0,1.084506313E1
1.931271681E1,-7.193761826E0,8.525996208E0,4.128211975E0,1.189474483E1
1.933081362E1,-8.672123909E0,8.039929390E0,4.504729271E0,1.265459535E1
1.934891017E1,-8.744587898E0,8.544171333E0,4.656804562E0,1.308267977E1
1.936700319E1,-5.072103977E0,1.030450821E1,4.379295349E0,1.229175968E1
1.938509761E1,-3.904124498E-1,1.117518902E1,3.544799089E0,1.173042506E1
1.940319539E1,3.413225174E0,1.197283936E1,2.122653008E0,1.262951480E1
1.942129903E1,6.944871902E0,1.146150684E1,2.434598684E0,1.362074358E1
1.943939144E1,8.052618027E0,8.846836090E0,4.142364025E0,1.265979248E1
1.945748763E1,7.467987061E0,2.106927872E0,-8.507575035E0,1.151472139E1
1.947557228E1,-1.052386999E0,-1.615951920E1,1.626343727E0,1.627521345E1
1.949368074E1,-3.003262520E0,-4.345885086E1,2.060665894E1,4.819051459E1
1.951177663E1,9.150636673E0,-5.423799896E1,-9.240374565E0,5.577525621E1
1.952987355E1,1.402434731E1,-3.781202698E1,-7.507359314E1,8.522016245E1
1.954796688E1,3.428327322E0,-3.391436768E1,-8.071941376E0,3.502990152E1
1.956606929E1,3.493566513E0,-2.409587669E1,1.575895882E1,2.900277683E1
1.958416213E1,-2.986102343E0,-1.298042965E1,1.307498550E1,1.866450125E1
1.960225911E1,-8.720115662E0,-6.508499146E0,8.348420143E0,1.371484951E1
1.962035494E1,-7.766008854E0,-7.611522675E-1,7.997757792E-1,7.844098902E0
1.963845162E1,-6.014047265E-1,5.629079342E0,-6.975622177E-1,5.703929780E0
1.965654756E1,2.408345699E0,9.786622047E0,-9.292329550E-1,1.012134250E1
1.967464412E1,4.480971813E0,1.146565628E1,8.244668245E-1,1.233775214E1
1.969274074E1,3.964376211E0,1.069382572E1,-1.289829254E0,1.147771087E1
1.971083748E1,3.038896084E0,1.093402863E1,-7.372499466E0,1.353298266E1
1.972893312E1,3.852309704E0,1.037605095E1,-8.329993248E0,1.385249114E1
1.974702968E1,2.767740488E0,9.037773132E0,-3.209903717E0,9.982244861E0
1.976512606E1,6.720489264E-2,8.551853180E0,-2.165622950E0,8.822053733E0
1.978321297E1,-1.483016968E0,9.671301842E0,-1.528605700E0,9.903032567E0
1.980131862E1,-2.697975397E0,9.993981361E0,-5.870410204E-1,1.036838232E1
1.981941524E1,-3.498994827E0,9.531671524E0,-3.213288188E-1,1.015868983E1
1.983751155E1,-3.703959942E0,9.011136055E0,-1.709824324E0,9.891581849E0
1.985560811E1,-3.975570679E0,8.789581299E0,-2.179205894E0,9.889936297E0
1.987370387E1,-3.913466215E0,8.852221489E0,-1.277838230E0,9.762679635E0
1.989180031E1,-3.203536987E0,8.938693047E0,-4.566386640E-1,9.506387404E0
1.990989674E1,-2.377377033E0,9.041666031E0,-4.258505106E-1,9.358685529E0
1.992798213E1,-1.712720156E0,9.102420807E0,-3.735611737E-1,9.269682995E0
1.994608907E1,-9.556429386E-1,9.331029892E0,-3.229909539E-1,9.385397990E0
1.996418477E1,-6.244640350E-1,9.542695045E0,-8.702144623E-1,9.602617210E0
1.998228224E1,-1.168960571E0,9.505571365E0,-1.025267959E0,9.631901691E0
2.000038014E1,-1.482342124E0,9.723443031E0,-1.188565493E0,9.907339223E0
2.001847481E1,-1.329070807E0,1.050414371E1,-5.468644500E-1,1.060200571E1
2.003657143E1,1.067284346E0,8.050716400E0,1.147743702E0,8.201856255E0
2.005466774E1,6.571487904E0,4.226849079E0,2.529401779E0,8.212708431E0
2.007276515E1,1.209115028E1,1.486521721E0,5.557545185E0,1.338999516E1
2.009084657E1,1.665909767E1,-1.293796158E1,7.728101015E-1,2.110719357E1
2.010895931E1,2.351191044E0,-3.552261353E1,3.810044527E0,3.580363962E1
2.012705324E1,1.868217468E0,-5.966561890E1,1.924580383E1,6.272062882E1
2.014514968E1,-1.198669624E1,-4.965754700E1,-5.334225845E1,7.385762924E1
2.016324202E1,-4.226286411E0,-3.422738647E1,-1.529933929E0,3.452124244E1
2.018134633E1,2.229582787E0,-1.817236328E1,1.611883163E1,2.439308426E1
2.019943843E1,-7.448613048E-1,-1.071651459E1,8.639420509E0,1.378543035E1
2.021753530E1,-1.293667555E0,-5.607054710E0,-7.626289368E0,9.553686607E0
2.023563106E1,7.306998253E0,2.066478252E0,-1.160060596E1,1.386494192E1
2.025372786E1,5.797036648E0,7.576943398E0,-5.469983578E0,1.099710987E1
2.027182405E1,1.269026995E-1,1.133859444E1,1.628088355E0,1.145558815E1
2.028992110E1,-4.090484977E-1,1.157657719E1,4.059780121E0,1.227461912E1
2.030801631E1,-3.565570354E0,7.601038456E0,-4.125580788E0,9.354650950E0
2.032611287E1,3.246000528E0,7.187656403E0,-3.502421379E0,8.629361477E0
2.034420802E1,3.579189301E0,7.523859978E0,4.421622276E0,9.432380854E0
2.036229744E1,4.325311184E0,9.695875168E0,2.626515388E0,1.093695091E1
2.038040212E1,5.502926826E0,1.124635410E1,1.393516302E0,1.259780028E1
2.039849837E1,5.062161922E0,1.077131653E1,-9.339040518E-1,1.193812883E1
2.041659505E1,5.020673752E0,9.736055374E0,-4.547904968E0,1.186091813E1
2.043469240E1,1.807486892E0,8.645278931E0,-5.712518692E0,1.051858957E1
2.045278646E1,-1.303310037E0,8.551165581E0,-1.382046461E0,8.759629117E0
2.047088130E1,-3.242022753E0,9.202338219E0,2.699052095E-1,9.760460493E0
2.048898311E1,-4.468553066E0,9.346723557E0,5.628347397E-3,1.035998260E1
2.050707649E1,-4.970606804E0,8.733523369E0,-9.699411392E-1,1.009564997E1
2.052517287E1,-4.086853027E0,8.299057961E0,-1.739167452E0,9.412833480E0
2.054325996E1,-2.626226664E0,8.441803932E0,-2.701249123E0,9.244342429E0
2.056136586E1,-1.071074486E0,9.363798141E0,-1.762570977E0,9.588251803E0
2.057946248E1,4.316151142E-3,1.085925484E1,6.788027287E-2,1.085946785E1
2.059755837E1,4.617438912E-1,1.093676186E1,6.481755972E-1,1.096567822E1
2.061565285E1,-2.985422909E-1,1.123008728E1,2.759695053E-3,1.123405516E1
2.063375283E1,-1.037986755E0,1.128550053E1,-9.223516583E-1,1.137060558E1
2.065184774E1,2.287517548E0,8.516148567E0,-7.232632637E-1,8.847634300E0
2.066994063E1,5.750066280E0,8.079033852E0,3.542172432E0,1.053000645E1
2.068804305E1,1.174173164E1,3.395863056E0,1.912402391E0,1.237163816E1
2.070613625E1,1.361712694E0,-1.760892868E1,-3.247972012E0,1.795767114E1
2.072423323E1,-7.737232208E0,-4.509913635E1,1.502671909E1,4.816221702E1
2.074232887E1,2.783405542E0,-5.500541306E1,1.694661713E1,5.762404571E1
2.076042562E1,2.049465370E1,-4.013928986E1,-1.720748901E1,4.824200554E1
2.077852205E1,8.798911095E0,-3.558948898E1,-2.552873230E1,4.467380368E1
2.079661830E1,6.362973213E0,-2.346232986E1,7.614866257E0,2.547458614E1
2.081471413E1,6.805375218E-1,-1.449857903E1,7.735247612E0,1.644706602E1
2.083281062E1,-3.103613615E0,-7.964034081E0,-3.403851032E0,9.200242288E0
2.085090706E1,2.783908248E-1,3.702993393E-1,-8.483444214E0,8.496084321E0
2.086899196E1,2.440015793E0,6.946599007E0,7.745343447E-1,7.403297798E0
2.088708791E1,3.587383747E0,9.613888741E0,3.065159559E0,1.070940624E1
2.090519606E1,5.317104340E0,1.203869724E1,4.924861431E0,1.405190699E1
2.092328523E1,6.501513004E0,1.180611897E1,2.968390465E0,1.380092237E1
2.094138997E1,2.661235332E0,1.067469025E1,-1.682903767E-1,1.100270453E1
2.095948494E1,-3.560803831E-2,1.233090782E1,-7.495305061E0,1.443025134E1
2.097758180E1,-1.711028337E0,1.136703682E1,-5.492253780E0,1.273978005E1
2.099567787E1,-1.061755180E0,1.004711246E1,1.205081582E0,1.017467516E1
2.101377437E1,-8.991798759E-2,9.066968918E0,3.360038757E0,9.669946797E0
2.103187038E1,-1.695125580E0,8.843549728E0,5.804481506E-1,9.023233488E0
2.104996724E1,-4.207570553E0,8.089329720E0,-1.842918873E0,9.302540257E0
2.106806343E1,-4.867069244E0,8.368817329E0,-2.105633497E0,9.907530416E0
2.108615999E1,-3.769817114E0,8.985424995E0,-2.669570446E0,1.010326629E1
2.110425569E1,-1.202059031E0,9.092429161E0,-3.717546463E0,9.896330919E0
2.112235225E1,6.149500608E-3,9.242045403E0,-2.686744213E0,9.624657683E0
2.114044862E1,8.470392823E-1,9.799029350E0,-9.919947386E-1,9.885469403E0
2.115854524E1,2.235472441E0,1.058853245E1,-9.670735598E-1,1.086506271E1
2.117664089E1,3.926816940E0,1.135965347E1,-2.054919958E0,1.219361777E1
2.119473781E1,5.399623394E0,1.057153606E1,-3.366672039E0,1.233887305E1
2.121283431E1,6.487688065E0,9.518166542E0,-2.921835423E0,1.188371630E1
2.123093068E1,6.097420216E0,8.785697937E0,-1.717754126E0,1.083132959E1
2.124902675E1,4.434630871E0,4.925231457E0,2.103533268E0,6.953323527E0
2.126712288E1,8.405101776E0,-4.147999763E0,-5.886084557E0,1.106786471E1
2.128521926E1,-5.896916389E0,-2.431966400E1,-1.327195263E1,2.832603761E1
2.130330403E1,-1.309912682E1,-3.352397156E1,1.190323544E1,3.790950812E1
2.132141164E1,-3.654202938E0,-5.367392731E1,2.664944077E1,6.003695832E1
2.133950862E1,9.412659645E0,-4.426438904E1,-1.835871816E0,4.529133166E1
2.135760457E1,1.442888165E1,-2.958149529E1,-3.646477127E1,4.912165543E1
2.137570143E1,8.551280022E0,-2.041604233E1,1.095726204E1,2.469819357E1
2.139379720E1,5.004150867E0,-9.941534042E0,2.269878626E0,1.135904811E1
2.141189382E1,-1.541833878E0,-1.511627197E0,-9.177418709E0,9.428005232E0
2.142999037E1,-1.159432530E0,8.029235840E0,-7.542664051E0,1.107721504E1
2.144808675E1,2.352153540E0,1.376817131E1,-4.357785702E0,1.463165964E1
2.146617061E1,5.157490730E0,1.216401291E1,-4.905923605E-1,1.322133131E1
2.148427931E1,4.347549438E0,9.561185837E0,3.760342360E0,1.115605824E1
2.150237526E1,-1.129360437E0,9.183584213E0,5.837950230E0,1.094053641E1
2.152047237E1,-4.153201103E0,1.089945793E1,5.953366280E0,1.309541266E1
2.153856551E1,-2.396288633E0,1.209649467E1,6.769279242E-1,1.235012607E1
2.155666719E1,-2.610231400E0,1.076516533E1,-1.675345302E0,1.120307433E1
2.157476082E1,-3.730087996E0,7.881176949E0,-5.053710461E0,1.007802044E1
2.159285726E1,-4.804053783E0,7.386179924E0,-6.841066360E0,1.115503364E1
2.161095320E1,-3.959049463E0,8.599057198E0,-3.886257172E0,1.023332068E1
2.162904982E1,-2.961963892E0,9.951128006E0,-3.176935196E0,1.085776662E1
2.164714607E1,-2.236541033E0,1.066732597E1,-3.557784081E0,1.146524255E1
2.166524269E1,-1.759220362E0,1.028112125E1,-1.294453740E0,1.051056235E1
2.168333602E1,-2.303499460E0,9.312083244E0,2.732238531E0,9.974273482E0
2.170143825E1,-1.683052063E0,8.754127502E0,4.523963451E0,9.996682344E0
2.171952883E1,3.479281664E-1,9.779089928E0,3.760840178E0,1.048310892E1
2.173762801E1,3.292646885E0,1.075700855E1,-1.001579046E0,1.129415411E1
2.175572713E1,6.502631187E0,1.087044525E1,-7.082927704E0,1.451270675E1
2.177382057E1,9.575120926E0,9.364949226E0,-8.237411499E0,1.572387239E1
2.179191682E1,1.239039135E1,3.724360466E0,-2.257212162E0,1.313345596E1
2.181000258E1,9.370406151E0,-4.182955742E0,7.983141899E0,1.300123782E1
2.182809877E1,2.096835852E0,-1.411863804E1,-7.944229603E0,1.633534342E1
2.184620619E1,-1.055082703E1,-2.092892456E1,-2.192982674E1,3.209761884E1
2.186430220E1,-1.014013481E1,-2.806769180E1,2.008558083E1,3.597288165E1
2.188239620E1,5.765480995E0,-3.518331909E1,2.044362831E1,4.109803708E1
2.190049727E1,3.672657967E0,-3.048131371E1,-1.984495401E0,3.076584346E1
2.191859139E1,-1.147532105E0,-2.587247086E1,-1.954728889E1,3.244685010E1
2.193668758E1,6.379694462E0,-1.597478485E1,1.073075390E1,2.027420360E1
2.195478444E1,-3.138653755E0,-1.211131573E1,1.409461975E1,1.884657587E1
2.197288014E1,-5.865405083E0,-5.719602585E0,-5.783745289E0,1.002838671E1
2.199097701E1,7.630901933E-1,5.470958710E0,-1.867716217E1,1.947691153E1
2.200907295E1,1.528176904E0,8.692319870E0,-9.284410477E0,1.280984103E1
2.202716670E1,2.153431892E0,1.065523243E1,-1.203851104E0,1.093711591E1
2.204526521E1,1.575495481E0,1.158796215E1,4.414371967E0,1.249998931E1
2.206336507E1,5.681023598E-1,1.076930332E1,5.179462433E0,1.196358915E1
2.208145870E1,3.586490452E-1,1.163944817E1,3.679950714E0,1.221259268E1
2.209955471E1,1.927084088E0,1.201649284E1,1.375946164E0,1.224757042E1
2.211763722E1,2.451482534E0,9.845643044E0,-4.161857367E-1,1.015478528E1
2.213574764E1,-7.505813837E-1,7.603934765E0,-2.039257526E0,7.908335323E0
2.215384371E1,-4.028581142E0,6.000805378E0,-3.743704796E0,8.139684073E0
2.217194057E1,-5.960083008E0,6.484844208E0,-3.163415194E0,9.358578393E0
2.219003645E1,-5.165903568E0,8.133586884E0,-2.465615273E0,9.945906391E0
2.220813277E1,-2.623713493E0,9.402622223E0,2.509477735E-1,9.765047463E0
2.222622615E1,-1.726203918E0,1.049349403E1,2.805362701E0,1.099832973E1
2.224432845E1,-2.500774145E0,9.971847534E0,1.337418318E0,1.036727073E1
2.226242165E1,-3.179149032E-1,9.830861092E0,-2.107636929E0,1.005927597E1
2.228051820E1,4.973305702E0,9.038187981E0,-6.149567604E0,1.200998723E1
2.229861428E1,1.036461735E1,8.627118111E0,-8.655336380E0,1.602396042E1
2.231671102E1,1.569268417E1,5.704684734E0,-6.708546162E0,1.799467577E1
2.233480690E1,2.034478951E1,-8.505945206E-1,3.029683828E0,2.058671793E1
2.235290352E1,9.919436455E0,-5.024429321E0,-1.519485474E0,1.122269779E1
2.237099990E1,-6.820655346E0,-2.078319740E1,1.004047871E0,2.189682045E1
2.238909651E1,-1.028503227E1,-2.241320038E1,8.562922478E0,2.610473293E1
2.240719222E1,8.833582401E-1,-3.768270874E1,2.196815872E1,4.362759284E1
2.242528853E1,4.717952251E0,-4.302887344E1,-1.272575569E1,4.511859795E1
2.244338509E1,2.983326912E-1,-2.217984772E1,-1.900541306E1,2.921027854E1
2.246148177E1,4.007828712E0,-1.828653336E1,-4.252493858E0,1.919749195E1
2.247957723E1,5.667804718E0,-1.261245346E1,-5.707325935E-1,1.383920982E1
2.249767610E1,7.128490925E0,3.047647953E0,8.527362347E-1,7.799403823E0
2.251577046E1,3.813252211E0,1.078512383E1,2.903053761E-1,1.144307937E1
2.253386727E1,-1.025881290E0,1.568476677E1,2.118680239E0,1.586042707E1
2.255196004E1,-2.275223255E0,1.668014336E1,3.550968647E0,1.720503419E1
2.257006233E1,-1.289381146E0,1.379033470E1,1.185707569E0,1.390114158E1
2.258815554E1,8.773429394E-1,1.229418850E1,-4.548011422E-1,1.233384148E1
2.260625228E1,1.309617043E0,1.093363571E1,2.903576136E0,1.138816232E1
2.262434792E1,-4.806267917E-1,6.985963821E0,5.144524574E0,8.689121113E0
2.264243288E1,-3.292846203E0,6.027400970E0,3.927780390E0,7.912007164E0
2.266053884E1,-5.922267914E0,5.660320282E0,6.636790037E-1,8.219060333E0
2.267863912E1,-6.314305782E0,5.528405666E0,-2.435982704E0,8.738863682E0
2.269673360E1,-2.889299870E0,7.668343544E0,-2.184396267E0,8.480750763E0
2.271483016E1,-1.437619925E-1,9.794959068E0,-6.147620082E-2,9.796206918E0
2.273292324E1,-7.296071053E-1,1.149967575E1,6.821678281E-1,1.154297283E1
2.275102638E1,-1.667303920E0,1.219639301E1,5.348049998E-1,1.232144153E1
2.276911867E1,1.158815622E0,9.791289330E0,-1.650662065E0,9.996843784E0
2.278721541E1,4.269595146E0,7.399213314E0,-3.190782070E0,9.119149664E0
2.280530446E1,8.280036926E0,4.652156830E0,-2.759644508E0,9.890258464E0
2.282340822E1,9.854682922E0,1.677671432E0,3.879392743E-1,1.000399189E1
2.284150417E1,7.223526955E0,-4.617339134E0,-1.010762215E1,1.325379900E1
2.285959834E1,-1.085963058E1,-1.988108826E1,-1.391267967E1,2.658480586E1
2.287769942E1,-1.647582245E1,-3.644570541E1,1.783402443E1,4.379263175E1
2.289579360E1,-4.108285427E0,-4.842950821E1,1.731261635E1,5.159478616E1
2.291388930E1,2.815779448E0,-4.245421600E1,-4.643663883E0,4.280014818E1
2.293197255E1,1.662896156E1,-1.095365429E1,-1.025078964E1,2.239606200E1
2.295007912E1,1.859307480E1,-6.776704788E-1,-1.350206184E1,2.298841756E1
2.296816176E1,1.349874687E1,5.812263489E-2,-3.495790482E0,1.394417787E1
2.298626515E1,1.446285725E0,-6.165034294E0,-2.316793919E0,6.742916602E0
2.300435005E1,-6.066409111E0,-5.477998734E0,-2.725690365E0,8.616215967E0
2.302246804E1,-2.019343615E0,5.872336388E0,-3.281865597E0,7.023725869E0
2.304056954E1,5.363926411E0,1.483218670E1,2.716960907E0,1.600460388E1
2.305865987E1,5.887798786E0,1.938278389E1,3.102984726E-1,2.025968339E1
2.307675667E1,-1.273738146E-1,1.238280010E1,2.580896378E0,1.264954499E1
2.309485304E1,-5.354209900E0,1.057937050E1,7.295722008E0,1.392186063E1
2.311293148E1,-8.938772202E0,8.476810455E0,7.764273643E0,1.456165887E1
2.313104537E1,-1.014463615E1,7.291654110E0,5.287750244E0,1.356621410E1
2.314914192E1,-7.690980911E0,6.350238800E0,5.104331017E0,1.120405798E1
2.316723714E1,-3.354662418E0,7.078701973E0,4.042364120E0,8.814901545E0
2.318533632E1,-9.503902197E-1,9.326691628E0,1.531656742E0,9.499283692E0
2.320343062E1,-9.067511559E-2,9.523818016E0,-2.103962660E0,9.753870537E0
2.322152693E1,8.511514664E-1,9.644286156E0,-5.812822819E0,1.129272436E1
2.323962386E1,6.066043377E-1,9.815608025E0,-7.041130066E0,1.209510820E1
2.325770595E1,-9.606040716E-1,9.769796371E0,-2.542839527E0,1.014089316E1
2.327581911E1,-2.840058088E0,1.010743523E1,3.507963181E0,1.106941654E1
2.329391249E1,-3.091278315E0,1.013129139E1,4.541513443E0,1.152494734E1
2.331200685E1,-1.794136167E0,1.005795670E1,1.918475389E0,1.039528572E1
2.333010787E1,2.553774834E0,1.061041451E1,-1.030514240E-1,1.091390313E1
2.334820137E1,5.093342304E0,6.887331963E0,2.557624817E0,8.939738368E0
2.336629775E1,1.314071465E1,-1.518767166E1,-2.126544189E1,2.925000463E1
2.338438228E1,2.292987585E0,-3.117372894E1,1.241855335E1,3.363450067E1
2.340249062E1,-2.180081844E0,-5.690244675E1,1.676833153E1,5.936175658E1
2.342057472E1,-1.289335060E1,-3.567648697E1,-2.673501205E1,4.640917023E1
2.343868343E1,1.388565540E0,-2.567045212E1,-2.133417130E0,2.579635042E1
2.345677956E1,4.185515404E0,-1.672982788E1,1.026234150E1,2.006791801E1
2.347487606E1,2.597414494E0,-7.296195984E0,1.036528969E1,1.293909843E1
2.349297200E1,6.961296082E0,-9.960273743E0,-8.229088783E-2,1.215209727E1
2.351106844E1,7.703981876E0,-1.119901466E1,-9.389882088E0,1.652087019E1
2.352915456E1,3.275294304E0,-8.025595665E0,-8.686182976E0,1.227141040E1
2.354726131E1,-2.297280788E0,4.375876904E0,-3.409746647E0,6.004345917E0
2.356535738E1,-3.157707691E0,9.091150284E0,6.130605340E-1,9.643442050E0
2.358344167E1,-1.781336308E0,1.258260536E1,-9.933427572E-1,1.274683673E1
2.360154048E1,2.146985054E0,1.501331997E1,-8.907025456E-1,1.519219116E1
2.361963655E1,3.427676201E0,1.163586903E1,5.852160454E-1,1.214433571E1
2.363773177E1,-2.596683502E-1,9.298882484E0,2.174098492E0,9.553185195E0
2.365583028E1,-3.119286537E0,9.686502457E0,3.792973042E0,1.086024506E1
2.367392568E1,-4.445531845E0,1.023969555E1,5.756514072E0,1.255991929E1
2.369202651E1,-5.313073158E0,1.046749210E1,5.540246010E0,1.298042616E1
2.371011421E1,-4.631000519E0,9.374178886E0,4.258262634E0,1.128956138E1
2.372821022E1,-2.387125254E0,7.658247471E0,3.178181171E0,8.628322946E0
2.374630898E1,-6.465550661E-1,8.052366257E0,-9.127863050E-1,8.129687240E0
2.376440816E1,-2.589583397E-2,8.269134521E0,-4.763168812E0,9.542904875E0
2.378251454E1,-9.456865788E-1,8.475465775E0,-4.729907990E0,9.751916365E0
2.380059932E1,-1.240305543E0,9.316150665E0,-2.468772650E0,9.717194011E0
2.381870510E1,-8.772283792E-1,1.085978127E1,1.213492155E0,1.096252443E1
2.383680251E1,-3.495923281E-1,1.180969620E1,3.105486870E0,1.221618548E1
2.385489852E1,7.935390472E-1,9.362833023E0,5.167796016E-1,9.410600809E0
2.387298311E1,2.777527809E0,8.702508926E0,-7.011315823E-1,9.161872507E0
2.389109163E1,3.325415850E0,7.605482101E0,7.643417716E-1,8.335824309E0
2.390918782E1,4.436898232E0,5.497786522E0,3.430362940E0,7.853605061E0
2.392728395E1,4.033211708E0,3.754446507E0,-6.492503881E-1,5.548350324E0
2.394538014E1,-5.703596115E0,-2.983163834E0,4.333149791E-1,6.451204304E0
2.396347695E1,-2.880057096E0,-1.106393433E1,6.264360428E0,1.303639456E1
2.398156130E1,7.215958595E0,-3.358538818E1,2.930299377E1,4.515211847E1
2.399966902E1,1.240473557E1,-6.794462585E1,-1.258244896E1,7.020447043E1
2.401775368E1,-1.983290291E1,-4.432785416E1,-4.609820175E1,6.695779937E1
2.403586208E1,-8.186721802E-2,-2.368348503E1,1.684373140E0,2.374344706E1
2.405395864E1,3.171767950E0,-2.281510162E1,4.821748734E0,2.353376797E1
2.407205440E1,2.489870787E0,-1.471643543E1,5.408730984E0,1.587536769E1
2.409015132E1,2.252662659E0,-5.924167633E0,6.957323551E0,9.411408088E0
2.410824703E1,-2.293112278E-1,-1.200935364E0,6.085795879E0,6.207394048E0
2.412634395E1,-1.479513049E0,1.701615810E0,2.820701361E0,3.611206363E0
2.414443959E1,-1.487553239E0,5.813923836E0,-1.178304076E0,6.115793121E0
2.416253646E1,-1.559825420E0,1.074379349E1,-2.092116737E1,2.357026513E1
2.418063844E1,6.341602802E0,1.265297127E1,-9.778149605E0,1.720249452E1
2.419872933E1,4.075438976E0,1.064564705E1,3.941301346E0,1.206121305E1
2.421682521E1,4.226072788E0,1.010079765E1,7.389394283E0,1.320942665E1
2.423492140E1,3.227017164E0,1.121484852E1,5.546407700E0,1.292087866E1
2.425301790E1,2.761729956E-1,1.253066635E1,3.777627468E0,1.309062031E1
2.427111409E1,-2.285860777E0,1.273451424E1,2.508910656E0,1.317906085E1
2.428921028E1,-3.753924370E0,1.130926228E1,1.163648963E0,1.197269562E1
2.430730666E1,1.801103473E0,8.956214905E0,-3.075195789E0,9.639221353E0
2.432540285E1,1.173168898E0,8.497555733E0,-3.433627605E0,9.239836429E0
2.434348726E1,-2.665142536E0,7.437749863E0,-2.174412727E0,8.194582263E0
2.436159365E1,-3.629341602E0,8.043906212E0,-1.977925777E0,9.043712622E0
2.437969222E1,-3.417146206E0,1.007086468E1,-8.031636477E-1,1.066509613E1
2.439778877E1,-2.009247780E0,1.086496735E1,2.043068707E-1,1.105107838E1
2.441588259E1,-1.481451035E0,1.009617329E1,-2.110682011E0,1.042028746E1
2.443398293E1,-2.666192055E-1,9.111357689E0,-3.717010736E0,9.843987685E0
2.445207735E1,9.733752012E-1,9.886960030E0,-9.309439659E-1,9.978281143E0
2.447017336E1,3.465733528E-1,1.087807846E1,2.187517881E0,1.110125842E1
2.448825936E1,-4.562259912E-1,1.143303013E1,1.774102092E0,1.157884961E1
2.450636629E1,-8.595795631E-1,8.541222572E0,-6.541014910E-1,8.609251350E0
2.452446266E1,2.355731964E0,3.680037975E0,-8.800209999E0,9.825265829E0
2.454255910E1,1.774641156E0,-5.722146988E0,-1.039327908E1,1.199635642E1
2.456065566E1,9.158017635E-1,-1.525419807E1,1.262930584E1,1.982494938E1
2.457874849E1,-2.457689762E0,-3.890981293E1,1.444252396E1,4.157643899E1
2.459684889E1,3.715476751E0,-4.784248734E1,1.860471344E1,5.146691874E1
2.461494716E1,2.770217896E1,-4.564546585E1,-7.438026905E0,5.390958649E1
2.463304079E1,1.642426014E0,-3.102881813E1,-2.526741028E1,4.004905916E1
2.465113655E1,-3.594121456E0,-1.993778610E1,1.058773041E1,2.285898202E1
2.466923293E1,-4.907027721E0,-6.974194527E0,3.453404903E0,9.200234550E0
2.468732912E1,-8.881257057E0,-1.194351196E1,-7.425395489E0,1.663312067E1
2.470542592E1,-1.530748129E0,-5.374529839E0,-8.910995483E0,1.051829840E1
2.472352223E1,1.090355754E0,5.089765072E0,-6.212517738E0,8.104934349E0
2.474161421E1,2.828091145E0,9.757608414E0,-7.664098740E-1,1.018805210E1
2.475971474E1,5.080361366E0,1.179307365E1,5.029453754E0,1.379065129E1
2.477780782E1,5.025269985E0,1.063599491E1,2.154971600E0,1.195916505E1
2.479591127E1,7.610710621E0,9.316229820E0,2.508919477E0,1.228860168E1
2.481400350E1,6.736884117E0,8.941644669E0,3.350865126E0,1.168618475E1
2.483210005E1,7.845704556E0,9.126468658E0,1.834178090E0,1.217422357E1
2.485018648E1,6.905983925E0,1.223920345E1,-3.545242548E0,1.449342816E1
2.486827498E1,3.987733424E-1,1.111261272E1,-5.149296761E0,1.225416006E1
2.488638930E1,-2.702821732E0,8.332990646E0,-3.192059517E0,9.323798710E0
2.490448519E1,-3.497660875E0,7.949709892E0,3.048951328E-1,8.690482151E0
2.492258180E1,-3.515052319E0,8.890096664E0,2.406584024E0,9.858045352E0
2.494067757E1,-2.297225475E0,1.024621296E1,2.318525314E0,1.075349639E1
2.495877400E1,-1.005971432E0,1.064811897E1,1.724308848E0,1.083363546E1
2.497687203E1,-3.166640699E-1,1.031637573E1,1.665138245E0,1.045469128E1
2.499496547E1,-2.960636616E-1,9.644452095E0,8.409010172E-1,9.685567842E0
2.501306276E1,-4.352010787E-3,9.493274689E0,-2.175409198E-1,9.495767863E0
2.503115944E1,6.265453100E-1,9.882816315E0,-8.627880216E-1,9.940172056E0
2.504925026E1,1.007089734E0,9.642878532E0,-2.126636207E-1,9.697657549E0
2.506735237E1,1.460457683E0,9.244284630E0,-8.454206586E-1,9.397045868E0
2.508544832E1,3.100071669E0,7.743946075E0,-1.672394156E0,8.507411321E0
2.510354207E1,3.612310648E0,3.165658474E0,7.090684175E-1,4.855199256E0
2.512162917E1,3.658721209E0,1.380940437E0,2.839643478E0,4.832888625E0
2.513973732E1,6.174850464E0,3.286692142E0,-2.405824959E-1,6.999214486E0
2.515783333E1,4.351708412E0,-2.038818359E0,-7.947044373E0,9.287069541E0
2.517592977E1,-4.888877869E0,-3.140913773E1,4.704132557E0,3.213353268E1
2.519402632E1,-1.367190933E1,-4.512686539E1,1.551008892E1,4.963786803E1
2.521212288E1,-7.921097279E0,-4.123626709E1,1.278874111E1,4.389448035E1
2.523021858E1,-8.778612018E-1,-3.424621582E1,-1.913382339E1,3.923871986E1
2.524831514E1,-1.561653900E1,-2.372190857E1,-2.549011040E1,3.816216667E1
2.526641146E1,-3.086374521E0,-1.688200569E1,1.573032951E1,2.328027256E1
2.528450820E1,-5.185519218E0,-1.277904129E1,1.470559502E1,2.016055631E1
2.530260420E1,-8.009052277E0,-5.958526611E0,1.412944674E0,1.008193287E1
2.532070033E1,5.537062287E-1,-2.773656845E-1,-1.251571751E1,1.253102977E1
2.533879665E1,2.877249479E0,7.781543255E0,-1.414397049E1,1.639764865E1
2.535689363E1,3.812953472E0,1.167876530E1,-7.271885872E-3,1.228544773E1
2.537497719E1,6.223291874E0,1.279926395E1,6.923192024E0,1.582659494E1
2.539307405E1,4.254508018E0,1.264575958E1,9.996006012E0,1.667141896E1
2.541118221E1,6.668896675E0,1.006756592E1,4.851221085E0,1.301400831E1
2.542927864E1,6.547908306E0,9.772678375E0,3.059613466E0,1.215489944E1
2.544737428E1,7.556415558E0,9.228306770E0,1.098329127E-1,1.192782986E1
2.546547103E1,1.079025459E1,9.875925064E0,-4.627517223E0,1.534201440E1
2.548356746E1,7.776082993E0,1.104027176E1,-4.860879421E0,1.435211538E1
2.550165212E1,3.173247099E0,8.932425499E0,-4.724437714E0,1.059141323E1
2.551975960E1,-1.406567097E0,7.387725830E0,-2.860261917E0,8.045994169E0
2.553785597E1,-3.080382347E0,5.899003506E0,9.128905535E-1,6.717169562E0
2.555595247E1,-3.799088001E0,6.653190613E0,1.415049911E0,7.791044938E0
2.557404909E1,-3.430276871E0,8.900911331E0,6.364246607E-1,9.560233171E0
2.559214504E1,-1.112916350E0,1.010011864E1,1.406384230E0,1.025811366E1
2.561024153E1,-1.439493895E-1,1.084819412E1,2.093674421E0,1.104932169E1
2.562833760E1,6.104611754E-1,1.111479568E1,1.089272618E0,1.118471550E1
2.564643447E1,5.327892900E-1,1.036605167E1,-8.980181068E-2,1.038012313E1
2.566453011E1,4.521777034E-1,9.184076309E0,-5.000384450E-1,9.208787150E0
2.568262642E1,4.910052121E-1,8.663663864E0,-1.405919671E0,8.790720550E0
2.570070418E1,2.023579836E0,7.184622765E0,-1.858168602E0,7.691974400E0
2.571881966E1,3.940790653E0,2.475293159E0,7.559372783E-1,4.714694939E0
2.573691676E1,4.065345764E0,-2.160158157E0,-5.211382866E0,6.953548074E0
2.575501058E1,2.029301167E0,-1.397198200E1,-1.791772604E0,1.423182326E1
2.577310524E1,-7.786862850E0,-3.874752426E1,9.894747734E0,4.074201642E1
2.579120717E1,-3.007663727E0,-4.582904434E1,1.128095150E1,4.729278183E1
2.580928877E1,-2.860097885E-1,-4.247637939E1,-1.742363453E0,4.251306197E1
2.582739675E1,-3.005416870E0,-3.485487366E1,-2.070733452E1,4.065327110E1
2.584549349E1,-6.128540516E0,-2.293711090E1,2.302415967E-1,2.374285317E1
2.586358998E1,-2.200740337E0,-1.036669731E1,7.585263252E0,1.303257034E1
2.588167397E1,-5.616861343E0,-2.176144600E0,-2.253009796E0,6.431235481E0
2.589978230E1,-4.928643227E0,1.804239750E0,-7.650159359E0,9.277485831E0
2.591787850E1,-4.819731712E-1,5.050299168E0,-5.398190498E0,7.407987613E0
2.593597518E1,6.291353226E0,7.981327057E0,1.241871119E0,1.023840568E1
2.595407082E1,1.148022175E1,1.027587795E1,3.273849010E0,1.575142046E1
2.597216731E1,1.288448048E1,1.138738537E1,2.678554296E0,1.740278816E1
2.599026387E1,9.724001884E0,1.079444790E1,5.295710087E0,1.546353334E1
2.600836635E1,6.051028252E0,1.123596191E1,5.594051838E0,1.393395848E1
2.602645601E1,3.234656096E0,1.252409363E1,-1.414190412E0,1.301214263E1
2.604455300E1,6.184334159E-1,1.127642441E1,-7.455274582E0,1.353223287E1
2.606264925E1,-3.426875591E0,8.880537987E0,-6.887871742E0,1.174947694E1
2.608073799E1,-4.305001259E0,8.158596992E0,-4.257528782E-1,9.234555010E0
2.609884126E1,-3.765045404E0,7.795956612E0,1.744273543E0,8.831477599E0
2.611693776E1,-4.148759365E0,6.578923225E0,-7.701015472E-2,7.778198097E0
2.613502223E1,-3.831897259E0,7.484113693E0,-3.060794115E0,8.947840800E0
2.615313045E1,-2.198095083E0,8.202900887E0,-2.991016388E0,9.003631711E0
2.617122658E1,-1.682537198E0,8.738278389E0,-2.091557503E0,9.141282919E0
2.618932320E1,-1.229525089E0,9.423061371E0,-1.214244008E0,9.580198644E0
2.620741713E1,1.917953193E-1,1.061245632E1,-5.274382830E-1,1.062728591E1
2.622551839E1,2.190363884E0,1.186537647E1,-4.922406971E-1,1.207589142E1
2.624361214E1,3.370710850E0,1.180180931E1,-4.069888592E-2,1.227379530E1
2.626169673E1,3.570138216E0,1.019557476E1,6.061152816E-1,1.081956595E1
2.627980013E1,2.803893089E0,6.715350151E0,5.607888103E-1,7.298782652E0
2.629789003E1,2.466691256E0,2.078247547E0,-2.306189239E-1,3.233707424E0
2.631599703E1,6.396575451E0,6.265583038E-1,-1.949108362E0,6.716232293E0
2.633409352E1,7.413208961E0,-3.769024849E0,-1.537659883E0,8.457281675E0
2.635218996E1,-4.956943035E0,-2.665438843E1,4.267541885E0,2.744521125E1
2.637028652E1,-8.792037010E0,-3.343868256E1,1.146472931E1,3.642643853E1
2.638838185E1,-7.345725060E0,-4.305041504E1,1.341582680E1,4.568678496E1
2.640647884E1,-3.956759930E0,-3.962757874E1,-2.343635941E1,4.620891567E1
2.642456014E1,-7.091421127E0,-3.268687057E1,-3.891094446E0,3.367284332E1
2.644266231E1,-5.878745317E-1,-2.027363205E1,8.344747543E0,2.193172507E1
2.646075734E1,-1.957209587E0,-1.160819435E1,5.828042507E0,1.313571182E1
2.647886104E1,-3.729148865E0,-5.632513046E0,-4.628955841E0,8.188955162E0
2.649696303E1,1.537168860E0,1.941150665E0,-9.166711807E0,9.495238774E0
2.651505776E1,4.169053555E0,7.701931953E0,-5.918462276E0,1.057019201E1
2.653315138E1,4.408472538E0,9.069022179E0,3.343493938E-1,1.008928059E1
2.655124880E1,3.458182096E0,7.029679775E0,4.068025112E0,8.827471295E0
2.656934529E1,4.297132015E0,9.727204323E0,2.281294107E0,1.087603560E1
2.658743770E1,4.087718964E0,1.031782818E1,1.171277046E0,1.115970047E1
2.660553810E1,2.763741732E0,1.143743610E1,1.208021879E0,1.182846270E1
2.662362270E1,2.044130802E0,1.149729252E1,6.650450826E-1,1.169651619E1
2.664171895E1,2.479531050E0,1.131545067E1,-1.367014408E0,1.166431423E1
2.665982698E1,7.381700277E-1,1.048126602E1,-5.012005568E-1,1.051917461E1
2.667792293E1,-8.613252640E-1,9.100214005E0,4.774613976E-1,9.153346138E0
2.669601833E1,-2.173248053E0,7.926879406E0,-5.903733969E-1,8.240568243E0
2.671411727E1,-4.106284142E0,7.473043442E0,-1.289904237E0,8.623908666E0
2.673221224E1,-3.413224220E0,7.738479137E0,-2.654995441E0,8.864714306E0
2.675030806E1,-2.874997616E0,8.815743446E0,-3.008965969E0,9.748682988E0
2.676839607E1,-2.380278826E0,9.075857162E0,-2.329136372E0,9.667563641E0
2.678650093E1,-2.482284546E0,1.010478973E1,-9.635635614E-1,1.044973525E1
2.680459780E1,-1.854113460E0,1.173010540E1,-9.040391445E-2,1.187608026E1
2.682269362E1,-1.536992431E0,1.114119625E1,-6.102472544E-1,1.126325891E1
2.684077614E1,-1.093670607E0,1.087485313E1,-8.779883385E-2,1.093006197E1
2.685888680E1,2.087144852E-1,1.046829224E1,-5.046445131E-1,1.048252690E1
2.687698250E1,1.042142153E0,9.309296608E0,-1.950216413E0,9.568302235E0
2.689507863E1,2.673365593E0,7.447776794E0,-2.482106686E0,8.293196993E0
2.691317513E1,7.357762337E0,4.026074409E0,-4.089534760E0,9.331143355E0
2.693125978E1,8.228595734E0,-3.337835312E0,-2.226325989E0,9.154641431E0
2.694936794E1,1.354038239E0,-2.814786530E1,9.257793427E0,2.966213882E1
2.696744588E1,-2.572975874E0,-4.062937927E1,1.687111092E1,4.406814097E1
2.698556001E1,1.608370018E1,-5.054379272E1,-2.425172234E1,5.832243505E1
2.700365676E1,-6.343413353E0,-4.452226639E1,-7.529962540E0,4.559793233E1
2.702174404E1,-1.264401817E1,-2.817848206E1,7.686095238E0,3.182725415E1
2.703984865E1,-1.068309784E1,-1.794058228E1,6.851038933E0,2.197566396E1
2.705793367E1,-1.246925640E1,-1.265475559E1,1.956124425E0,1.787320948E1
2.707604207E1,-6.306399822E0,-9.049075127E0,3.206721783E0,1.148649224E1
2.709412331E1,5.094691515E-1,-8.187284470E-1,-1.185155392E0,1.527896721E0
2.711222505E1,4.474809170E-1,5.505768776E0,-4.815769672E0,7.328394539E0
2.713033058E1,1.294858456E-1,1.054261494E1,-2.119560242E0,1.075434944E1
2.714841432E1,5.498406410E0,1.201972771E1,-2.498732567E0,1.345176537E1
2.716651265E1,7.146485806E0,1.051581287E1,-2.080676794E0,1.288346986E1
2.718460951E1,3.030090809E0,6.606085300E0,7.503010273E0,1.044590716E1
2.720270717E1,2.250983238E0,8.447345734E0,8.218790054E0,1.199887851E1
2.722080031E1,1.831503510E0,1.183900928E1,1.361595631E0,1.205696847E1
2.723889748E1,6.387965202E0,1.267570972E1,-4.495678425E0,1.488928611E1
2.725699159E1,7.210207462E0,1.192269516E1,-4.443507671E0,1.462472263E1
2.727509273E1,1.856317163E0,9.210892677E0,-1.573405147E0,9.526912463E0
2.729318593E1,-2.856571198E0,7.640622616E0,-1.865680933E0,8.367788137E0
2.731128780E1,-4.690490723E0,7.204219818E0,-3.018587589E0,9.111166634E0
2.732938460E1,-4.893713951E0,6.934122086E0,-4.373126030E0,9.547497924E0
2.734747560E1,-3.213923454E0,8.182802200E0,-3.542684555E0,9.478299936E0
2.736557247E1,-1.725745559E0,9.693991661E0,-6.421753168E-1,9.867322899E0
2.738368038E1,-1.478421092E0,1.112179852E1,1.160668612E0,1.127950720E1
2.740177468E1,-1.644859195E0,1.192795563E1,6.662532687E-1,1.205925291E1
2.741987129E1,-1.698949099E0,1.102793598E1,2.947396040E-1,1.116192956E1
2.743796761E1,-1.484251738E0,1.031665039E1,3.502488136E-1,1.042875605E1
2.745606130E1,-1.059055090E0,9.481273651E0,-6.519395113E-1,9.562487796E0
2.747416286E1,-3.958331347E-1,8.737029076E0,-2.208399534E0,9.020498292E0
2.749225533E1,1.070421100E0,7.559955597E0,-2.232928276E0,7.955168046E0
2.751035347E1,2.512053728E0,4.262628555E0,-3.934656978E-1,4.963389103E0
2.752844918E1,1.748711705E0,-4.788045883E-1,-1.250153065E1,1.263232025E1
2.754654482E1,4.287166595E0,-1.499588394E1,3.791938782E0,1.605101655E1
2.756464137E1,-5.981512070E0,-3.461752701E1,1.973158073E1,4.029251718E1
2.758272847E1,-2.034271479E0,-5.194940948E1,2.143502426E1,5.623468388E1
2.760083492E1,2.523280144E1,-4.370017242E1,-4.440374374E1,6.721675235E1
2.761892958E1,-5.333917618E0,-4.201041794E1,-6.656970978E0,4.286771693E1
2.763702864E1,-6.326675892E0,-2.278709602E1,7.970769882E0,2.495619654E1
2.765512166E1,-5.394570351E0,-9.831554413E0,3.361291409E0,1.170722561E1
2.767321804E1,-4.659628868E0,-6.807644844E0,-2.317772388E0,8.569027854E0
2.769131673E1,1.142596483E0,-2.427727699E0,-3.837790012E0,4.682736453E0
2.770941139E1,2.103423595E0,8.174434662E0,-5.515542507E0,1.008300461E1
2.772749666E1,2.953169346E0,1.103861713E1,-2.299646616E0,1.165592776E1
2.774560445E1,6.252628803E0,1.424913216E1,4.652656555E0,1.624131605E1
2.776370052E1,6.194908619E0,1.315109158E1,3.516853333E0,1.495648220E1
2.778179683E1,6.232577324E0,8.440297127E0,-1.962144375E0,1.067397050E1
2.779989320E1,5.050538540E0,8.379183769E0,4.139778137E0,1.062339038E1
2.781798958E1,6.690628529E0,1.114425564E1,-4.356048703E-1,1.300571780E1
2.783608669E1,7.311300278E0,1.179563236E1,-9.567681313E0,1.685623268E1
2.785418050E1,2.489342213E0,8.993193626E0,-4.587625504E0,1.039810867E1
2.787228188E1,-1.673068285E0,7.862889767E0,-2.341843128E0,8.373077224E0
2.789037508E1,-4.791414261E0,7.005789757E0,-1.724244356E0,8.660932937E0
2.790847072E1,-4.938001156E0,8.018185616E0,-2.189374566E-1,9.419293476E0
2.792656447E1,-3.897050381E0,8.713269234E0,3.865118027E-1,9.552876728E0
2.794466664E1,-3.192770720E0,9.699459076E0,7.748934031E-1,1.024078859E1
2.796276027E1,-2.372723341E0,1.040390873E1,6.634783149E-1,1.069164797E1
2.798084401E1,-1.964302301E0,9.688449860E0,7.643368840E-1,9.915077160E0
2.799895229E1,-1.516002178E0,9.208984375E0,-1.641576529E0,9.476203318E0
2.801704970E1,-3.775852919E-2,9.042718887E0,-3.155579567E0,9.577571351E0
2.803514839E1,1.752526402E0,8.125653267E0,-2.337342501E0,8.634857252E0
2.805324086E1,3.504809618E0,7.895112038E0,-4.086291790E-1,8.647743194E0
2.807133772E1,3.898731709E0,7.249320984E0,1.106493711E0,8.305244849E0
2.808943068E1,3.000313759E0,5.887276649E0,4.650260806E-1,6.624059047E0
2.810753310E1,1.444961190E0,2.998053551E0,-8.017215729E0,8.680552170E0
2.812562599E1,-4.296213388E-1,-3.607741356E0,-1.212118530E1,1.265399168E1
2.814371077E1,1.839010715E0,-1.979235458E1,7.202219486E0,2.114216701E1
2.816181886E1,-7.198135376E0,-2.671584702E1,1.419467449E1,3.109724133E1
2.817991554E1,-4.572433472E0,-3.152981949E1,1.331973362E1,3.453189784E1
2.819801125E1,-1.125149250E0,-3.500503540E1,6.857341766E0,3.568811567E1
2.821610768E1,1.001467228E0,-3.056895447E1,-4.125987625E1,5.135991922E1
2.823420119E1,-3.688045979E0,-2.214170265E1,-5.673957467E-1,2.245392209E1
2.825230360E1,2.607567310E-1,-1.249977112E1,9.446306229E0,1.566987471E1
2.827039601E1,-5.677012920E0,-9.122269630E0,3.840943575E0,1.141039554E1
2.828849269E1,-9.256622314E0,-8.226853371E0,-4.076645851E0,1.303783780E1
2.830658888E1,-5.402412891E0,-2.983870506E0,-6.608631611E0,9.042320499E0
2.832468562E1,-2.945221901E0,2.892940044E0,-2.828301430E0,5.004270489E0
2.834278145E1,5.847537518E-2,7.391082287E0,2.549352944E-1,7.395708806E0
2.836086635E1,6.542636156E-1,1.068523693E1,1.725004673E0,1.084333852E1
2.837897115E1,1.684764147E0,1.203496265E1,2.837142229E0,1.247910783E1
2.839706990E1,3.328543901E0,1.222500420E1,2.682242393E0,1.295084385E1
2.841517024E1,4.338986874E0,1.364334297E1,-1.822320104E0,1.443220236E1
2.843326296E1,3.249755383E0,1.196217537E1,1.115629673E-1,1.239624927E1
2.845135939E1,3.616743088E0,9.449912071E0,2.105899334E0,1.033520589E1
2.846945564E1,4.712161064E0,9.008852959E0,4.685184956E-1,1.017759319E1
2.848754006E1,2.876349449E0,8.968676567E0,-2.470988780E-1,9.421868359E0
2.850564815E1,1.148942709E0,8.795997620E0,3.464134634E-1,8.877479696E0
2.852374452E1,4.177956581E-1,8.705246925E0,4.605212212E-1,8.727425568E0
2.854184102E1,8.207298517E-1,9.260198593E0,-2.905766010E0,9.740038582E0
2.855993660E1,-1.715353727E-1,9.373620033E0,-3.716081619E0,1.008481232E1
2.857803304E1,-1.480071068E0,9.142584801E0,-2.285891771E0,9.539537116E0
2.859612959E1,-2.901351213E0,9.395386696E0,-9.523640275E-1,9.879176447E0
2.861422298E1,-2.637710571E0,9.848423004E0,-8.438695669E-1,1.023039924E1
2.863231276E1,-1.484344959E0,9.549816132E0,-1.523072124E0,9.783762916E0
2.865041823E1,-1.365228891E0,8.865769386E0,-8.923333883E-1,9.014542452E0
2.866851473E1,-1.008392096E0,7.111092567E0,-2.694964647E0,7.671201117E0
2.868661135E1,1.039707899E0,2.317956924E0,-1.204778767E1,1.231272125E1
2.870470705E1,2.284366608E0,-8.164677620E0,-1.256492376E0,8.570826362E0
2.872280385E1,-1.700622320E0,-2.181168747E1,1.301890087E1,2.545846827E1
2.874088606E1,5.009167671E0,-3.784157562E1,2.670674896E1,4.658676901E1
2.875899806E1,1.902822685E1,-3.827348709E1,1.072032833E1,4.406652551E1
2.877709084E1,-1.309558105E1,-3.251523209E1,-6.975382233E1,7.806619172E1
2.879518923E1,-6.045178413E0,-2.720969391E1,9.403402328E0,2.941658716E1
2.881328517E1,-8.430767059E-2,-1.687569046E1,1.575272751E1,2.308558988E1
2.883138143E1,-6.191789627E0,-1.213851547E1,7.014074326E0,1.532576443E1
2.884947701E1,-9.759077072E0,-1.166229439E1,-7.086148262E0,1.677683501E1
2.886757356E1,-9.237146378E-2,-3.576365471E0,-1.230275249E1,1.281236284E1
2.888566994E1,1.992840767E-1,2.201207638E0,-5.750585794E-1,2.283795433E0
2.890376674E1,-1.982265711E0,7.338527203E0,2.213579416E-1,7.604758917E0
2.892186232E1,-2.221440315E0,9.862350464E0,4.180144072E-1,1.011807738E1
2.893995748E1,7.868205309E-1,1.240728855E1,1.616365433E0,1.253684701E1
2.895805532E1,4.934156895E0,1.417741394E1,-7.073719978E0,1.659465229E1
2.897615157E1,3.551683426E0,1.120153427E1,-3.377568007E0,1.222688803E1
2.899424733E1,1.893185258E0,9.592571259E0,2.641818047E0,1.012821684E1
2.901234011E1,4.030214787E0,8.798732758E0,3.676491261E0,1.035262852E1
2.903044252E1,6.620383739E0,8.352536201E0,1.275340438E0,1.073409685E1
2.904853835E1,6.621441841E0,9.346264839E0,-1.298025250E0,1.152740335E1
2.906663234E1,4.365575790E0,9.106968880E0,-5.067481995E0,1.129931449E1
2.908472908E1,3.596214056E-1,7.673238754E0,-3.171205044E0,8.310503111E0
2.910282497E1,-1.843444347E0,8.615802765E0,-3.993082047E-1,8.819852118E0
2.912091024E1,-3.122400522E0,9.540286064E0,6.735112667E-1,1.006081809E1
2.913901729E1,-2.837432861E0,9.322051048E0,-1.935226321E-1,9.746235786E0
2.915711159E1,-2.787683010E0,8.995644569E0,-1.454345107E0,9.529318836E0
2.917521352E1,-2.553492785E0,9.699729919E0,-1.958021998E0,1.021953698E1
2.919330708E1,-1.370673656E0,1.014434910E1,-2.523916721E0,1.054308876E1
2.921140120E1,-1.260338426E0,1.011405849E1,-1.605836391E0,1.031801060E1
2.922950081E1,-2.117542982E0,9.768105507E0,-4.280049801E-1,1.000415222E1
2.924758101E1,-2.561960459E0,8.784808159E0,-1.170671582E-1,9.151513563E0
2.926569173E1,6.334750652E-1,7.861026764E0,-2.089850903E0,8.158707571E0
2.928377590E1,1.023787212E1,6.221154213E0,-1.172649574E1,1.676387449E1
2.930187233E1,-1.597152233E0,-9.859884262E0,-2.194490433E0,1.022663196E1
2.931998079E1,-1.005336571E1,-2.979777527E1,6.675647736E0,3.214874563E1
2.933807723E1,-5.723757744E0,-4.078503799E1,1.590722370E1,4.414997727E1
2.935617275E1,8.878999710E0,-3.918946457E1,1.541763973E1,4.303898679E1
2.937426967E1,2.125532722E1,-2.425077820E1,-5.219453049E1,6.135273581E1
2.939236275E1,-6.712499142E0,-3.237357712E1,-3.434392691E0,3.324005405E1
2.941046523E1,-7.648292542E0,-2.271901894E1,1.042768478E1,2.614166808E1
2.942855763E1,-8.805066109E0,-1.722495270E1,3.991224289E0,1.975241899E1
2.944665431E1,-9.131453514E0,-1.104821873E1,-5.327483177E0,1.529145700E1
2.946475044E1,-3.787166119E0,-4.853702545E0,-4.126697540E0,7.411524013E0
2.948284749E1,9.282107353E-1,1.057161331E0,-2.576528788E0,2.935586116E0
2.950093141E1,1.404923201E-1,9.062149048E0,-2.258394241E0,9.340376224E0
2.951903670E1,-9.919857979E-2,1.183624172E1,-3.771456480E-1,1.184266428E1
2.953713582E1,2.305585861E0,1.311441422E1,3.643404484E0,1.380499846E1
2.955523518E1,4.317404270E0,1.484038162E1,2.575089455E0,1.566869465E1
2.957332784E1,7.252304077E0,1.550627899E1,-2.169989109E0,1.725541814E1
2.959141329E1,6.117090702E0,8.939668655E0,-2.133648396E0,1.104033196E1
2.960952089E1,5.184134960E0,5.491404533E0,3.154318810E0,8.184161911E0
2.962762020E1,7.101881504E0,8.903319359E0,1.972951651E0,1.155847545E1
2.964571327E1,7.122553825E0,1.141012383E1,-3.246632099E0,1.383699095E1
2.966380507E1,5.837177753E0,1.077364731E1,-4.438045502E0,1.303228178E1
2.968191066E1,4.950465202E0,9.955176353E0,-9.937017560E-1,1.116244082E1
2.969999977E1,2.122692585E0,9.291412354E0,6.002700329E-1,9.549685411E0
2.971810115E1,-2.170896292E0,7.666880131E0,-1.003917933E0,8.031294595E0
2.973619051E1,-3.860379696E0,7.420020103E0,-2.100051641E0,8.623772181E0
2.975429506E1,-3.747714520E0,7.995264053E0,-1.248825669E0,8.917913262E0
2.977237581E1,-3.656553507E0,9.102483749E0,-6.788740754E-1,9.832927538E0
2.979048342E1,-4.268408298E0,1.052173996E1,-1.413039446E0,1.144215896E1
2.980857985E1,-5.008882523E0,1.088276100E1,-2.304306269E0,1.219972207E1
2.982667610E1,-4.967415810E0,9.942572594E0,-9.407087564E-1,1.115414284E1
2.984477272E1,-4.266195297E0,9.173952103E0,1.447792530E0,1.022046588E1
2.986285799E1,-4.950590134E0,7.625303268E0,1.554609776E0,9.223361869E0
2.988095320E1,-8.876755714E0,2.897429466E0,-8.659525871E0,1.273496281E1
2.989905757E1,2.125331402E0,-5.792678833E0,3.285864830E0,6.990641552E0
2.991715492E1,3.101063251E0,-2.380043793E1,1.179813862E1,2.674459784E1
2.993525630E1,-2.278890133E0,-4.140330887E1,1.347015858E1,4.359899652E1
2.995335011E1,5.775037289E0,-4.374032974E1,-2.719004631E0,4.420362528E1
2.997144338E1,1.502449322E1,-3.684996033E1,4.619786739E0,4.006241882E1
2.998954256E1,1.787053680E1,-2.530453491E1,-1.916504669E1,3.642766239E1
3.000763429E1,-7.792221308E-1,-2.381029701E1,-3.071958542E0,2.402029059E1
3.002573494E1,-1.877665162E0,-1.773933411E1,4.396771193E-1,1.784384815E1
3.004383156E1,1.295267820E0,-7.899830818E0,-7.667213440E0,1.108472858E1
3.006192073E1,1.277775669E1,-1.433069229E0,-1.111620045E1,1.699690165E1
3.008002370E1,1.126677990E1,7.278074265E0,-3.353297710E0,1.382589237E1
3.009812013E1,6.674134254E0,1.035871220E1,6.679283142E0,1.401641216E1
3.011621523E1,5.248556614E0,1.371633911E1,1.033824539E1,1.796008416E1
3.013431417E1,1.571497440E0,1.680368423E1,5.780830860E0,1.783960239E1
3.015240676E1,-9.767311811E-2,1.474497795E1,-1.896358728E0,1.486674447E1
3.017050252E1,-1.658416986E0,1.043471622E1,-2.763843536E0,1.092119411E1
3.018860573E1,-1.049995303E0,8.715901375E0,-8.597860336E-1,8.820921660E0
3.020669802E1,8.003872037E-1,7.865420818E0,-3.382946968E0,8.599406637E0
3.022479354E1,-1.345315933E0,6.330169201E0,-6.862090588E0,9.432348822E0
3.024287844E1,-2.273154259E0,7.883004189E0,-5.798003674E0,1.004618494E1
3.026098268E1,-3.602780819E0,9.900081635E0,-2.681699276E0,1.087120771E1
3.027908309E1,-4.594404697E0,1.013074112E1,-8.719787002E-1,1.115799341E1
3.029717586E1,-5.157133102E0,9.426072121E0,-1.846306324E-1,1.074620612E1
3.031527822E1,-3.773108244E0,9.492897034E0,-7.583948374E-1,1.024336872E1
3.033337166E1,-1.649415731E0,9.913765907E0,-9.400902987E-1,1.009391383E1
