"Time (s)","Linear Acceleration x (m/s^2)","Linear Acceleration y (m/s^2)","Linear Acceleration z (m/s^2)","Absolute acceleration (m/s^2)"
1.988379165E-2,-6.568753293E-1,9.993476272E-3,-3.817910224E-1,7.598351483E-1
2.988679166E-2,-5.095675948E-1,6.330254138E-2,-1.957261884E-1,5.495225985E-1
3.989079167E-2,-3.475792560E-1,9.908691645E-2,7.510163784E-2,3.691474126E-1
4.989379167E-2,-2.777941990E-1,7.224936604E-2,3.899958354E-1,4.842378956E-1
5.989679167E-2,-6.470294952E-2,1.863215268E-3,5.827908146E-1,5.863745193E-1
6.989979165E-2,1.807228178E-1,-3.536688387E-2,5.347132534E-1,5.655349827E-1
7.990279165E-2,2.899897367E-1,3.025466323E-2,2.602361798E-1,3.908097508E-1
8.990579165E-2,2.639398062E-1,7.827082872E-2,3.449857235E-4,2.753010406E-1
9.990879166E-2,1.461078858E-1,8.735827893E-2,-1.056077313E-1,2.003296686E-1
1.099117917E-1,4.746565014E-2,7.742269009E-2,-2.601601660E-1,2.755550269E-1
1.199147917E-1,-5.340788305E-2,7.789923817E-2,-3.678506756E-1,3.797825862E-1
1.299177917E-1,-4.206399232E-2,9.614752114E-2,-3.408388782E-1,3.566298727E-1
1.399207917E-1,-5.300062448E-2,7.801852137E-2,-3.206314856E-1,3.342162555E-1
1.499237917E-1,-7.248003870E-2,7.816090107E-2,-3.288579333E-1,3.457022169E-1
1.599267917E-1,-1.355314422E-1,1.072727260E-1,-3.176336181E-1,3.616176502E-1
1.699297916E-1,-2.253399968E-1,1.485660553E-1,-2.237097931E-1,3.505653412E-1
1.799327917E-1,-2.124594578E-1,1.840525147E-1,-1.153749204E-1,3.038514796E-1
1.899357917E-1,-2.762429327E-1,1.782023755E-1,-5.417386830E-2,3.331682045E-1
1.999387917E-1,-3.985953355E-1,2.077156118E-1,-1.306805921E-1,4.680827213E-1
2.099417917E-1,-5.743032888E-1,2.821875045E-1,6.086366773E-3,6.399149155E-1
2.199447917E-1,-7.472735757E-1,3.273721558E-1,1.020596409E-1,8.221961418E-1
2.299477917E-1,-8.016851333E-1,3.865521178E-1,-2.859422940E-1,9.348179439E-1
2.399507917E-1,-8.859788865E-1,4.195935640E-1,-8.724764961E-1,1.312338593E0
2.499537917E-1,-1.023988379E0,3.476514691E-1,-1.495268698E0,1.845329841E0
2.599567916E-1,-9.774109206E-1,2.368420547E-1,-2.342872308E0,2.549603286E0
2.699597917E-1,-1.027952498E0,7.343810499E-3,-3.154086941E0,3.317379192E0
2.799637917E-1,-1.217995778E0,-3.390098691E-1,-3.652897121E0,3.865501103E0
2.899667917E-1,-9.215355125E-1,-5.303567854E-1,-4.133670394E0,4.268224098E0
2.999697917E-1,1.378536639E-1,-7.187374091E-1,-4.917762718E0,4.971918869E0
3.099727917E-1,1.984380832E0,-1.345356321E0,-5.180651779E0,5.708494002E0
3.199757917E-1,2.958385603E0,-1.352998632E0,-4.238710361E0,5.343156015E0
3.299787916E-1,3.200412092E0,-2.132896163E0,-3.338888192E0,5.093138321E0
3.399817917E-1,3.612838139E0,-3.231223117E0,-1.974760846E0,5.233840144E0
3.499847917E-1,4.738499072E0,-3.030565972E0,-2.473364035E0,6.144528722E0
3.599877917E-1,4.741675280E0,-1.637430882E0,-3.351540397E0,6.033033017E0
3.699907917E-1,3.388562043E0,-3.937610622E0,-2.364836204E0,5.707852521E0
3.799937917E-1,1.509667905E0,-4.395852235E0,-7.192509116E0,8.563574104E0
3.899967917E-1,-1.373721603E0,-1.389905672E0,-8.734360242E0,8.950307126E0
3.999997917E-1,-7.338969004E-1,7.658098340E-2,-2.204657578E0,2.324862221E0
4.100027917E-1,3.194138906E0,-9.575818428E-1,5.773833096E-1,3.384207119E0
4.200057917E-1,3.043688001E0,-2.255486839E0,-1.653724734E0,4.133529125E0
4.300087916E-1,1.326538373E0,-2.094772024E0,-1.791624298E0,3.059034409E0
4.400117917E-1,5.691233135E-1,-2.208576821E0,-1.031065264E0,2.502959947E0
4.500147917E-1,2.460584360E-1,-3.509970120E0,-5.655386049E-1,3.563743665E0
4.600177917E-1,5.652205529E-1,-4.394288397E0,-8.196977735E-1,4.505679664E0
4.700200000E-1,2.110435838E0,-3.103948821E0,-1.609492886E0,4.083981520E0
4.800230000E-1,2.886913040E0,-1.553019600E0,-2.787327356E0,4.302944406E0
4.900260000E-1,1.967651363E0,-1.223627816E0,-3.533970017E0,4.225856245E0
5.000290000E-1,1.229232665E0,-8.166613144E-1,-2.663689735E0,3.045191562E0
5.100320000E-1,-3.500121363E-1,-5.314033273E-1,-1.142750006E0,1.307966196E0
5.200360000E-1,-1.759602752E0,-1.455124931E-1,4.424447751E-1,1.820201393E0
5.300390000E-1,-2.999212032E0,-8.534316396E-2,7.188151771E-1,3.085328431E0
5.400420000E-1,-2.650205763E0,-1.665319908E-1,8.070286113E-1,2.775359197E0
5.500450000E-1,-6.122861073E-1,2.396911288E-1,1.143175099E0,1.318785586E0
5.600480000E-1,1.232353178E0,1.222165574E0,-3.024209172E-1,1.761772248E0
5.700510000E-1,2.157817142E0,1.596069141E0,-1.095838380E0,2.899046960E0
5.800540000E-1,4.475874597E0,-2.384708697E-1,3.686411607E0,5.803443142E0
5.900570000E-1,3.675040819E0,-1.608115574E0,-1.458689101E0,4.268458107E0
6.000600000E-1,1.127721346E0,-1.181329570E0,-3.405420735E0,3.776795648E0
6.100630000E-1,1.104505269E0,-1.876411995E0,-5.543493730E-1,2.246810426E0
6.200660000E-1,2.568587696E0,-7.858464879E-1,1.011554859E0,2.870268400E0
6.300690000E-1,3.503138233E0,-5.555912120E-1,1.903082753E0,4.025218385E0
6.400720000E-1,2.989802985E0,-2.022102828E0,1.282580321E0,3.830513545E0
6.500750000E-1,1.310463354E0,-2.604534916E0,1.578079305E0,3.315305510E0
6.600780000E-1,-7.607455605E-1,-1.358802651E-1,3.604849380E0,3.686751457E0
6.700810000E-1,-1.549243176E-1,2.820699170E0,5.059609737E0,5.794824936E0
6.800840000E-1,8.114529070E-1,2.692484056E0,2.084590268E0,3.500491793E0
6.900870000E-1,-6.615343907E-1,2.805086227E-1,-2.422159383E0,2.526493402E0
7.000900000E-1,-3.087542996E0,-1.851225991E0,-4.829282066E0,6.023447907E0
7.100930000E-1,-5.218099102E0,-3.401339378E0,-5.515819443E0,8.319971871E0
7.200960000E-1,-5.876372793E0,-3.683145644E0,-5.674512291E0,8.960882143E0
7.300990000E-1,-5.779120148E0,-3.809876150E0,-7.041672587E0,9.874134837E0
7.401020000E-1,-5.221352493E0,-4.606729144E0,-8.245509040E0,1.079226087E1
7.501050000E-1,-4.929838972E0,-5.998831615E0,-8.631939243E0,1.161032593E1
7.601090000E-1,-4.791865148E0,-7.390240315E0,-8.295493963E0,1.209929104E1
7.701120000E-1,-4.363190566E0,-8.658988463E0,-7.312646009E0,1.214455865E1
7.801150000E-1,-3.862339123E0,-9.151318173E0,-5.478582619E0,1.134368350E1
7.901180000E-1,-3.219626627E0,-9.060169437E0,-3.160063380E0,1.012119886E1
8.001210000E-1,-2.153050638E0,-9.293890833E0,-7.450171351E-2,9.540313641E0
8.101240000E-1,-6.352929640E-1,-9.195234271E0,2.521527843E0,9.555837646E0
8.201270000E-1,1.181985993E0,-8.542178636E0,3.666670530E0,9.370719263E0
8.301300000E-1,3.290397817E0,-7.443647028E0,4.064969996E0,9.097174283E0
8.401330000E-1,5.226433139E0,-6.968897556E0,3.612058705E0,9.430169913E0
8.501360000E-1,7.440333996E0,-7.299189227E0,1.808342072E0,1.057860267E1
8.601390000E-1,9.454938354E0,-5.224606469E0,1.695096562E0,1.093461131E1
8.701420000E-1,9.928030726E0,-2.652391160E0,3.051998064E0,1.071987244E1
8.801450000E-1,9.605697116E0,-1.995809069E0,7.189310104E0,1.216301158E1
8.901480000E-1,1.162409164E1,-2.454417887E0,6.885401655E0,1.373143946E1
9.001510000E-1,1.162147443E1,-2.309035640E0,8.820208477E0,1.477113371E1
9.101540000E-1,1.174982783E1,-1.514897801E0,8.875774568E0,1.480313289E1
9.201570000E-1,1.271037801E1,-1.016600422E0,8.301356966E0,1.521511462E1
9.301600000E-1,1.377412336E1,-8.374703854E-1,7.890880673E0,1.589634640E1
9.401630000E-1,1.483404697E1,-5.793900740E-1,6.697131252E0,1.628607409E1
9.501660000E-1,1.485986945E1,-3.602890563E-1,4.836030337E0,1.563114575E1
9.601690000E-1,1.480477581E1,1.109211547E0,-6.690699899E-1,1.486133883E1
9.701720000E-1,1.290845010E1,1.304674026E0,-2.008922619E0,1.312882433E1
9.801750000E-1,1.292490066E1,3.428376904E0,-1.017290393E1,1.680163086E1
9.901790000E-1,1.184565901E1,4.679374074E0,-1.402030400E1,1.894162357E1
1.000182000E0,9.477498667E0,2.756410788E0,-6.189950198E0,1.165059075E1
1.010185000E0,8.453909068E0,1.421758087E0,-1.075258227E0,8.639800625E0
1.020188000E0,8.242605312E0,1.748578266E0,9.152111641E-1,8.475593181E0
1.030191000E0,8.035077689E0,2.462592294E0,2.173907071E0,8.680593656E0
1.040194000E0,6.752685648E0,1.461038513E0,2.021421920E0,7.198579274E0
1.050197000E0,3.584990482E0,-4.985400385E-1,-1.227479669E0,3.821963535E0
1.060200000E0,9.572529370E-1,-1.431091413E0,-4.013200795E0,4.366936734E0
1.070203000E0,-3.165857971E-1,-1.487987160E0,-5.329745253E0,5.542609207E0
1.080206000E0,-5.387606961E-1,-1.188429624E0,-4.867433394E0,5.039299148E0
1.090209000E0,-4.394182563E-1,-5.619460756E-1,-3.181698663E0,3.260686764E0
1.100212000E0,-8.430322570E-1,-7.383448774E-1,-1.800282270E0,2.120583127E0
1.110215000E0,-2.366714914E0,-2.267102918E0,-6.957406023E-1,3.350395516E0
1.120218000E0,-3.899111093E0,-3.294973263E0,-8.884113282E-2,5.105664390E0
1.130221000E0,-3.697102656E0,-2.900172771E0,4.517633365E-1,4.720557198E0
1.140224000E0,-1.996471558E0,-1.259617136E0,5.756874709E-1,2.429804535E0
1.150227000E0,-1.406875169E-1,5.394968605E-1,1.275249521E0,1.391801416E0
1.160230000E0,7.785228503E-1,2.031683491E0,1.640134635E0,2.724679294E0
1.170233000E0,1.022559904E0,2.596783555E0,1.660138544E0,3.247302507E0
1.180236000E0,6.237341881E-1,2.405338113E0,1.491801153E0,2.898304065E0
1.190239000E0,-5.450844598E-1,1.666765194E0,1.462569898E0,2.283491622E0
1.200243000E0,-1.340107568E0,1.030596317E0,1.822710728E0,2.486019199E0
1.210246000E0,-1.258413779E0,9.518407542E-1,1.860071512E0,2.439153970E0
1.220249000E0,-1.800053059E0,4.687157303E-1,1.172846795E0,2.198966816E0
1.230252000E0,-2.091649611E0,1.735003370E-1,7.002107987E-1,2.212554095E0
1.240255000E0,-4.378354150E-1,1.318632499E0,2.521059188E-1,1.412107968E0
1.250258000E0,1.494200411E0,3.226336892E0,-7.801340505E-1,3.640122765E0
1.260261000E0,3.259770686E0,4.750909495E0,-1.804722646E0,6.037737141E0
1.270264000E0,4.713037372E0,5.279721739E0,-1.907120256E0,7.329753787E0
1.280267000E0,5.585171514E0,5.747132955E0,-1.320544538E0,8.122038902E0
1.290270000E0,4.277641123E0,6.121389256E0,-1.696232822E0,7.658121557E0
1.300273000E0,2.300036775E0,4.947243209E0,-3.799741463E0,6.648565239E0
1.310276000E0,1.900617567E0,4.519474361E0,-4.294420293E0,6.517671462E0
1.320279000E0,6.970892626E-1,4.050993689E0,-3.692267008E0,5.525334286E0
1.330282000E0,-8.726448959E-1,2.773232058E0,-3.479754049E0,4.534425366E0
1.340285000E0,-6.625848430E-1,2.340995352E0,-3.210778036E0,4.028445544E0
1.350288000E0,2.855774277E-1,3.499769068E0,-3.470194728E0,4.936819770E0
1.360291000E0,1.111887233E0,5.239714504E0,-3.894120202E0,6.622316321E0
1.370294000E0,2.389559401E0,5.411099904E0,-3.829692364E0,7.046739665E0
1.380297000E0,2.340117100E0,3.143034534E0,-2.914636443E0,4.883637959E0
1.390300000E0,4.639941037E-1,1.669651964E0,-1.588268078E0,2.350664523E0
1.400303000E0,-3.660473943E-2,1.343532867E0,-9.359854442E-1,1.637830645E0
1.410306000E0,7.407504219E-1,7.710746670E-1,7.593252718E-1,1.311427542E0
1.420310000E0,1.043828566E0,-2.239775956E-2,2.558340743E0,2.763184231E0
1.430313000E0,8.670204592E-1,-4.009055704E-1,3.044029478E0,3.190386374E0
1.440316000E0,5.187070853E-1,-6.584415060E-1,3.354677428E0,3.457811866E0
1.450319000E0,1.479228616E-2,-1.139621746E0,3.848457833E0,4.013674654E0
1.460322000E0,-9.454591030E-1,-1.947449087E0,4.273924633E0,4.790916679E0
1.470324917E0,-1.416010859E0,-1.561917601E0,3.147641555E0,3.788445684E0
1.480327917E0,-1.621872611E0,-1.308637853E0,1.041799582E0,2.329882007E0
1.490330917E0,-1.791407951E0,-1.012197176E0,-1.633292516E-1,2.064064441E0
1.500333917E0,-1.795617946E0,2.139338332E-1,-9.727137060E-1,2.053334714E0
1.510336917E0,-1.519200767E0,-3.296648490E-1,-2.400686653E0,2.860060539E0
1.520339917E0,-1.526484058E0,-1.657184239E0,-3.588411103E0,4.237110740E0
1.530342917E0,-2.233324723E0,-1.867383455E0,-2.523609744E0,3.852721950E0
1.540345917E0,3.031243372E-1,1.430747597E0,-2.716138675E0,3.084855321E0
1.550348917E0,4.511417482E0,2.746686283E0,-2.313401318E0,5.766194490E0
1.560351917E0,4.409796383E0,-1.135293345E0,3.034409055E0,5.472004516E0
1.570354917E0,2.829402165E0,-2.597744544E0,4.421345803E0,5.856798788E0
1.580357917E0,2.815200448E0,-1.117223986E0,3.627706146E0,4.725864459E0
1.590360917E0,1.008186278E0,-2.545567500E0,2.724939319E0,3.862854872E0
1.600363917E0,-1.376785398E-1,-3.706740621E0,1.643224888E0,4.056977871E0
1.610366917E0,-1.599580686E0,-4.408928948E0,1.371376723E-1,4.692133799E0
1.620369917E0,-2.996781052E0,-5.470999950E0,-1.335833253E0,6.379419065E0
1.630373917E0,-3.439339848E0,-5.299250854E0,-1.701709324E0,6.542700729E0
1.640376917E0,-3.593436200E0,-4.947662455E0,-1.408929296E0,6.275127828E0
1.650379917E0,-3.961041293E0,-4.379638491E0,-1.247577719E0,6.035522479E0
1.660382917E0,-4.266344302E0,-3.348899209E0,-9.876473486E-1,5.512918184E0
1.670385917E0,-4.455328651E0,-2.944238265E0,-3.933404428E-1,5.354737067E0
1.680388917E0,-4.297567264E0,-2.676601849E0,5.063665366E-1,5.088191124E0
1.690391917E0,-4.200246207E0,-2.628442427E0,1.954093863E0,5.326280186E0
1.700394917E0,-5.057507663E0,-3.010647432E0,1.631781303E0,6.107789448E0
1.710397917E0,-5.247076734E0,-2.974078945E0,1.049363540E0,6.121937901E0
1.720400917E0,-4.967062347E0,-2.736018623E0,9.745190339E-1,5.753885089E0
1.730403917E0,-4.341524878E0,-3.221042238E0,3.986696682E-1,5.420598571E0
1.740406917E0,-3.085399699E0,-4.128906668E0,-1.407453459E0,5.343078402E0
1.750409917E0,1.575733986E0,-2.164928087E0,-1.665100492E0,3.153158871E0
1.760412917E0,3.317201453E-1,-2.970632304E0,-3.184574177E-1,3.006012253E0
1.770415917E0,1.281595650E0,-2.982577581E0,3.875838590E-1,3.269323735E0
1.780418917E0,3.878233024E0,-6.244685984E-1,3.020531638E-1,3.939782803E0
1.790421917E0,4.187977579E0,-1.596400970E-1,-1.230081096E0,4.367807307E0
1.800424917E0,4.136161308E0,1.982445842E-1,-1.984156737E0,4.591732706E0
1.810427917E0,4.756098315E0,1.646219248E-1,-3.653486520E-1,4.772949947E0
1.820430917E0,5.371599038E0,6.137535757E-1,1.643039532E0,5.650694522E0
1.830433917E0,6.105190129E0,1.919015247E0,1.362778977E0,6.543174503E0
1.840436917E0,6.421185358E0,1.452819082E0,-7.435846587E-2,6.583907188E0
1.850440917E0,5.370953506E0,-4.475985110E-1,-7.214551950E-1,5.437645040E0
1.860443917E0,3.625529228E0,-1.537181540E0,-3.746018708E-1,3.955719382E0
1.870446917E0,2.254861187E0,-1.410137916E-1,4.811334622E-1,2.309929279E0
1.880449917E0,1.442638494E0,2.903254253E0,1.237830995E0,3.470204123E0
1.890452917E0,1.213720002E0,5.027292176E0,1.144321153E0,5.296815437E0
1.900455917E0,1.093690113E0,5.505478642E0,9.345955610E-2,5.613838956E0
1.910458917E0,2.249116006E0,5.817455664E0,3.044247580E-1,6.244516606E0
1.920461917E0,1.386739697E0,3.645327315E0,1.673500017E0,4.244061796E0
1.930464917E0,-7.578544047E-1,1.663579631E-1,1.469105331E0,1.661411672E0
1.940467917E0,-1.291371903E0,-2.062768459E0,-4.187952180E-2,2.434010887E0
1.950470917E0,-2.076745643E0,-3.519968274E0,-1.067204565E0,4.223976172E0
1.960473917E0,-2.144897280E0,-2.918187457E0,7.039726049E-1,3.689441666E0
1.970476917E0,-2.219993948E0,-2.133063685E0,2.999158530E0,4.298056038E0
1.980479917E0,-1.499665365E0,-1.308472377E0,3.575585820E0,4.092176698E0
1.990482917E0,-4.170738526E-1,3.392893660E-1,3.812127328E0,3.849854885E0
2.000485917E0,3.397890837E-1,6.168543541E-1,1.933105867E0,2.057392575E0
2.010488917E0,1.850936992E0,1.438795704E0,3.041970089E0,3.840531584E0
2.020491917E0,2.995385322E0,1.951450337E0,4.736111362E0,5.933906174E0
2.030494917E0,3.112607085E0,1.218674347E0,4.978510026E0,5.996586705E0
2.040498917E0,2.816526012E0,-2.845032942E-1,4.902941780E0,5.661501479E0
2.050501917E0,2.619159972E0,-1.483218756E0,4.621859692E0,5.515571035E0
2.060504917E0,2.178635130E0,-2.551562943E0,3.575364795E0,4.903076371E0
2.070507917E0,1.657240226E0,-2.684940856E0,2.045575891E0,3.760283671E0
2.080510917E0,5.948894347E-1,-3.221991241E0,-1.321729769E0,3.533000223E0
2.090513917E0,-6.969001052E-1,-4.684377537E0,-5.678715854E0,7.394381409E0
2.100516917E0,-5.335068266E-1,-4.247958317E0,-7.733968302E0,8.839912053E0
2.110519917E0,1.021324241E0,-2.698654915E0,-7.951737909E0,8.459076624E0
2.120522917E0,2.635463178E0,-5.960581470E-1,-7.397623594E0,7.875645136E0
2.130525917E0,3.356660804E0,1.404338647E0,-6.441916661E0,7.398488295E0
2.140528917E0,3.949140455E0,2.826497853E0,-5.185478656E0,7.104504862E0
2.150531917E0,4.405661232E0,3.162772395E0,-3.518564358E0,6.464771864E0
2.160534917E0,4.651624943E0,3.015913142E0,-2.048036399E0,5.909974601E0
2.170537917E0,4.629575093E0,2.564287069E0,-1.053706267E0,5.396186673E0
2.180540917E0,4.698760518E0,2.274020174E0,-5.593335396E-1,5.249987825E0
2.190543917E0,3.497147761E0,1.639262230E0,1.064438832E-1,3.863748623E0
2.200546917E0,1.112358811E0,8.972423780E-1,6.827080357E-1,1.583816994E0
2.210549917E0,-7.370538121E-1,6.816099286E-1,9.629592347E-1,1.391089826E0
2.220552917E0,-1.728395139E0,1.288072026E0,1.034640251E0,2.391016468E0
2.230556917E0,-2.202482122E0,2.420692901E0,8.187446773E-1,3.373577399E0
2.240559917E0,-2.320659174E0,3.280887321E0,1.076296985E-1,4.020107556E0
2.250562917E0,-2.046362049E0,3.744381487E0,-4.373109929E-1,4.289432510E0
2.260565917E0,-1.616462913E0,3.796890653E0,-7.691147534E-1,4.197721821E0
2.270568917E0,-1.213927578E0,3.305007670E0,-9.653062340E-1,3.650823467E0
2.280571917E0,-3.773864976E-1,2.574192252E0,-1.105056004E0,2.826665012E0
2.290574917E0,7.760690662E-1,1.505403092E0,-1.672200766E0,2.380079214E0
2.300577917E0,1.220999931E0,-5.633207560E-3,-2.218516649E0,2.532328708E0
2.310580917E0,4.156895243E-2,-1.573869894E0,-1.478628691E0,2.159892874E0
2.320583917E0,-1.757076755E0,-2.473028989E0,3.197842240E-2,3.033844710E0
2.330586917E0,-3.068354188E0,-3.278785831E0,1.112324093E0,4.626283480E0
2.340589917E0,-3.779132075E0,-4.474413378E0,1.214666666E0,5.981440414E0
2.350592917E0,-3.870169422E0,-5.259909033E0,5.328661910E-1,6.552007385E0
2.360595917E0,-3.853123034E0,-5.622694851E0,-6.426921038E-1,6.846481406E0
2.370598917E0,-3.499608854E0,-6.963412283E0,1.039903915E-1,7.794048162E0
2.380601917E0,-4.023926343E0,-7.151054111E0,-3.390917301E0,8.878506533E0
2.390604917E0,-5.366190364E0,-8.525639786E0,-2.355708700E0,1.034562208E1
2.400607917E0,-6.833989427E0,-1.091130202E1,-8.230540752E-3,1.287478120E1
2.410611917E0,-8.639245924E0,-1.467921738E1,1.712272904E0,1.711864105E1
2.420614917E0,-1.009737545E1,-1.854022158E1,3.378886070E0,2.138021698E1
2.430617917E0,-1.095150630E1,-2.129218205E1,4.271626092E0,2.432158088E1
2.440620917E0,-1.035661409E1,-2.162332625E1,3.387717705E0,2.421372183E1
2.450623917E0,-7.918650854E0,-1.928521182E1,2.898177116E0,2.104813191E1
2.460626917E0,-5.396064373E0,-1.600427480E1,3.120226300E0,1.717527685E1
2.470630125E0,-3.244902971E0,-1.371078983E1,2.738432354E0,1.435319354E1
2.480633125E0,-1.313784280E0,-1.145846575E1,1.633969331E0,1.164870474E1
2.490636125E0,1.265078728E-1,-8.308498170E0,3.397571433E-1,8.316404332E0
2.500639125E0,1.665580110E0,-5.435479869E0,-9.791361415E-1,5.768648550E0
2.510642125E0,3.082084035E0,-3.076865687E0,-2.018510883E0,4.800076108E0
2.520645125E0,4.269887130E0,-8.577830279E-1,-2.636014279E0,5.090805349E0
2.530648125E0,5.038429953E0,1.290063588E0,-3.193587806E0,6.103199450E0
2.540651125E0,4.991018389E0,3.434593078E0,-3.314888295E0,6.906169603E0
2.550654125E0,4.651907656E0,5.696369183E0,-3.007194359E0,7.945570126E0
2.560657125E0,4.601901683E0,7.935851024E0,-2.653825482E0,9.549765456E0
2.570660125E0,5.055011487E0,9.983526649E0,-1.700402471E0,1.131880356E1
2.580663125E0,5.864779519E0,1.128411581E1,-3.720466375E-2,1.271724391E1
2.590666125E0,6.319733827E0,1.163585156E1,7.113868743E-1,1.326039775E1
2.600669125E0,6.622768117E0,1.178061459E1,6.252883780E-1,1.352903999E1
2.610673125E0,7.059267443E0,1.192705927E1,1.788633301E-1,1.386073562E1
2.620676125E0,7.747014025E0,1.229289850E1,-3.091843915E-1,1.453365663E1
2.630679125E0,1.050949539E1,1.288590207E1,-6.616938005E-1,1.664132820E1
2.640682125E0,1.187272694E1,1.061457921E1,-2.673648713E0,1.614866355E1
2.650685125E0,9.960990311E0,8.212456484E0,-3.631952394E0,1.341107183E1
2.660688125E0,8.327678207E0,7.296543362E0,-3.583059731E0,1.163735736E1
2.670691125E0,7.391210952E0,6.792379471E0,-2.596835010E0,1.036870148E1
2.680694125E0,6.983191659E0,6.719395110E0,-1.380812960E0,9.788865145E0
2.690697125E0,6.799601952E0,7.296061551E0,-6.053061032E-1,9.991671349E0
2.700700125E0,6.636950539E0,8.552484353E0,-1.216068463E-1,1.082630543E1
2.710703125E0,6.342822143E0,9.704890451E0,1.931067089E-1,1.159541209E1
2.720706125E0,5.862044191E0,1.049456511E1,4.276127644E-1,1.202839605E1
2.730709125E0,5.330611811E0,1.082758977E1,6.354765666E-1,1.208536110E1
2.740712125E0,4.688964385E0,1.089080285E1,9.665587807E-1,1.189664699E1
2.750715125E0,4.054296196E0,1.075236534E1,1.194084467E0,1.155320370E1
2.760718125E0,3.407894692E0,1.041517630E1,1.433595775E0,1.105191569E1
2.770721125E0,2.798808071E0,1.005238463E1,1.693750094E0,1.057130800E1
2.780724125E0,2.199825439E0,9.705859335E0,1.946062127E0,1.014051750E1
2.790728125E0,1.706413994E0,9.397685342E0,2.261250440E0,9.815375289E0
2.800731125E0,1.701277361E0,8.920083598E0,1.945187969E0,9.286872041E0
2.810734125E0,1.896696717E0,8.426311380E0,1.333119560E0,8.739415865E0
2.820737125E0,1.941996997E0,8.051670917E0,7.963369775E-1,8.320751738E0
2.830740125E0,1.592627470E0,7.762475232E0,1.146007490E-1,7.924999516E0
2.840743125E0,1.152850487E0,7.519084881E0,-4.960520482E-1,7.623107590E0
2.850746125E0,9.445595089E-1,6.711083878E0,-1.282749306E0,6.897556470E0
2.860749125E0,3.287085369E-2,2.457229228E0,-7.469211055E0,7.863089072E0
2.870752125E0,-2.136472173E0,-4.204388375E0,-1.646957049E1,1.713149577E1
2.880755125E0,-5.521420491E-1,-3.918461868E0,-9.711184394E0,1.048648209E1
2.890758125E0,-3.580374397E-1,-4.490890247E0,-4.069954455E0,6.071310838E0
2.900761125E0,-3.778099456E0,-9.482681054E0,-2.609840387E0,1.053596423E1
2.910764125E0,-8.142212128E0,-1.782587543E1,-1.367957271E0,1.964506962E1
2.920767125E0,-9.861223948E0,-2.532664391E1,1.892751893E0,2.724454329E1
2.930770125E0,-8.503620926E0,-2.932942555E1,6.422095184E0,3.120528927E1
2.940773125E0,-4.786346546E0,-2.693643851E1,8.408866796E0,2.862149321E1
2.950776125E0,-7.950318059E-1,-2.245887699E1,5.637439774E0,2.316924597E1
2.960779125E0,6.515212532E-1,-2.142857655E1,3.240982997E0,2.168207424E1
2.970782125E0,8.207563388E-1,-2.196693905E1,2.334279824E0,2.210585701E1
2.980786125E0,1.158232556E0,-2.217961164E1,1.896088314E0,2.229062193E1
2.990789125E0,7.358932860E-1,-2.097057116E1,-5.220627292E-1,2.098997244E1
3.000792125E0,-1.272015280E0,-1.990779060E1,-3.030526503E0,2.017727039E1
3.010795125E0,-3.622035809E0,-1.944981562E1,-4.040552316E0,2.019258612E1
3.020798125E0,-5.272781678E0,-1.774723038E1,-4.533656198E0,1.906096670E1
3.030801125E0,-5.779508404E0,-1.561547004E1,-4.848152200E0,1.734215101E1
3.040804125E0,-5.582644932E0,-1.415107347E1,-4.737711160E0,1.593313252E1
3.050807125E0,-5.021071908E0,-1.266905573E1,-4.232946761E0,1.427003765E1
3.060810125E0,-3.855221600E0,-1.067310282E1,-3.509666065E0,1.187836745E1
3.070813125E0,-2.334162588E0,-8.162466883E0,-2.898899247E0,8.970941837E0
3.080816125E0,-9.426731971E-1,-5.586750847E0,-2.652419811E0,6.255857146E0
3.090819125E0,9.137473136E-2,-3.226355018E0,-2.630513218E0,4.163810254E0
3.100822125E0,9.671709841E-1,-1.252188833E0,-2.470746236E0,2.933936528E0
3.110825125E0,1.622866930E0,3.714537299E-1,-1.752459063E0,2.417185908E0
3.120828125E0,1.991176904E0,1.910447906E0,-9.151138079E-1,2.907237512E0
3.130831125E0,2.342541063E0,3.558667486E0,-1.207585249E-1,4.262182015E0
3.140834125E0,2.886036834E0,5.578985744E0,8.040482855E-1,6.332517997E0
3.150837125E0,3.888740179E0,7.728730951E0,1.507666549E0,8.782291313E0
3.160841125E0,4.857775840E0,9.191742899E0,1.764607092E0,1.054513925E1
3.170844125E0,5.402019178E0,1.007433274E1,2.268151324E0,1.165411952E1
3.180847125E0,5.774426004E0,1.108348849E1,2.443227485E0,1.273409099E1
3.190850125E0,6.223081691E0,1.215761031E1,2.671139672E0,1.391650895E1
3.200853125E0,6.740106533E0,1.286906676E1,2.102759905E0,1.467867551E1
3.210856125E0,7.235194960E0,1.322190413E1,1.185159861E0,1.511857793E1
3.220859125E0,7.837053545E0,1.352007821E1,5.458591793E-1,1.563681187E1
3.230862125E0,8.254654670E0,1.381372538E1,6.881862921E-1,1.610689086E1
3.240865125E0,8.160734938E0,1.389378195E1,2.215194261E-1,1.611470889E1
3.250868125E0,8.274120635E0,1.373986803E1,-8.302403033E-1,1.606033452E1
3.260871125E0,8.588200316E0,1.308804031E1,-1.897541347E0,1.576878711E1
3.270874125E0,7.891008142E0,1.175182757E1,-2.368497730E0,1.435211630E1
3.280877125E0,6.632922392E0,1.065080388E1,-2.394531873E0,1.277376474E1
3.290880125E0,5.460638684E0,9.756707307E0,-2.260037727E0,1.140700148E1
3.300883125E0,4.513701113E0,9.145900143E0,-2.071073259E0,1.040722497E1
3.310886125E0,3.790760725E0,8.834660456E0,-1.853563854E0,9.790648150E0
3.320889125E0,3.092868640E0,8.637014042E0,-1.449487338E0,9.287887893E0
3.330892125E0,2.476672390E0,8.678729247E0,-7.749455237E-1,9.058409796E0
3.340895125E0,2.215239577E0,8.994506375E0,7.302353740E-2,9.263571867E0
3.350898125E0,2.242031373E0,9.368317117E0,8.046528876E-1,9.666412807E0
3.360902125E0,2.300314518E0,9.515363481E0,1.363790545E0,9.884002919E0
3.370905125E0,2.320072991E0,9.535487258E0,1.769432945E0,9.971918014E0
3.380908125E0,2.424425325E0,9.497887908E0,1.932461504E0,9.991102058E0
3.390911125E0,2.727117699E0,9.517898249E0,1.997909389E0,1.010045543E1
3.400914125E0,3.158034396E0,9.607546005E0,2.113810558E0,1.033181090E1
3.410917125E0,3.438506620E0,9.622866880E0,1.873196465E0,1.038902112E1
3.420920125E0,3.425070888E0,9.489613513E0,1.191568995E0,1.015892277E1
3.430923125E0,3.387159588E0,9.430926763E0,5.743801796E-1,1.003718797E1
3.440926125E0,3.372884196E0,9.407514512E0,5.183440188E-2,9.994016405E0
3.450929125E0,3.407090115E0,9.260652335E0,-5.661215723E-1,9.883746170E0
3.460932125E0,3.531468870E0,8.929544978E0,-1.369628406E0,9.699686998E0
3.470935375E0,3.646637092E0,7.641823200E0,-3.184802949E0,9.046457524E0
3.480938375E0,2.386240229E0,3.136033663E0,-7.926803627E0,8.852291529E0
3.490941375E0,9.848824927E-1,3.127411358E0,-3.813267535E0,5.029085863E0
3.500944375E0,8.119491164E-1,5.812680243E0,-2.707849223E-2,5.869177644E0
3.510947375E0,-4.865831403E-1,3.663908597E0,-1.422709612E-1,3.698814727E0
3.520950375E0,-4.510655590E0,-9.134527894E0,-1.134240553E0,1.025046903E1
3.530953375E0,-9.479384394E0,-2.357131679E1,2.280459128E0,2.550815943E1
3.540957375E0,-7.971499743E0,-3.742314847E1,1.155118154E1,3.996832052E1
3.550960375E0,-4.687823886E0,-4.548447548E1,1.553933345E1,4.829372720E1
3.560963375E0,-1.418713588E0,-4.098975823E1,8.109894567E0,4.180841325E1
3.570966375E0,7.328445770E0,-2.887529570E1,-3.527239872E0,2.999883732E1
3.580969375E0,9.446565142E0,-1.833362191E1,-1.105679361E1,2.340111045E1
3.590972375E0,2.211558609E0,-1.346256968E1,-1.339629149E1,1.912047069E1
3.600975375E0,-3.742816772E0,-1.224881284E1,-1.344476374E1,1.856889241E1
3.610978375E0,-5.584550539E0,-1.465909360E1,-9.992303320E0,1.859898803E1
3.620981375E0,-5.973406752E0,-1.860124079E1,-4.561438658E0,2.006226482E1
3.630984375E0,-5.251981963E0,-1.949164192E1,1.755626500E-1,2.018757642E1
3.640987375E0,-4.620350818E0,-1.750832718E1,2.649419020E0,1.830050774E1
3.650990375E0,-4.417197204E0,-1.510927775E1,3.339723759E0,1.609209931E1
3.660993375E0,-4.504388545E0,-1.393828160E1,3.256444205E0,1.500565357E1
3.670996375E0,-5.006504155E0,-1.388561222E1,3.418178190E0,1.515121291E1
3.680999375E0,-5.506816485E0,-1.407763712E1,3.429548686E0,1.550053867E1
3.691002375E0,-5.315710766E0,-1.358905314E1,3.015280473E0,1.490003565E1
3.701005375E0,-4.356047607E0,-1.218474607E1,2.245861738E0,1.313343376E1
3.711008375E0,-2.879844341E0,-9.990573714E0,1.453726569E0,1.049849453E1
3.721012375E0,-1.826035747E0,-7.790904980E0,9.484090233E-1,8.058044839E0
3.731015375E0,-9.505679615E-1,-5.736982189E0,3.941666543E-1,5.828542823E0
3.741018375E0,1.421189153E-1,-3.395742424E0,-7.529272485E-1,3.481115315E0
3.751021375E0,4.227104223E-1,-4.743857753E-1,-2.373375712E1,2.374226090E1
3.761024375E0,5.048623989E0,-4.862772578E-1,1.074906517E0,5.184640178E0
3.771027375E0,4.986194437E0,4.163204096E0,6.081035866E0,8.897943611E0
3.781030375E0,4.182637025E0,4.946828057E0,3.748575110E0,7.484475644E0
3.791033375E0,4.490479480E0,5.801796235E0,3.237874033E0,8.019293845E0
3.801036375E0,4.898911002E0,7.247721450E0,2.074860355E0,8.990764189E0
3.811039375E0,5.620529627E0,9.153383995E0,1.346921328E0,1.082538632E1
3.821042375E0,5.903150117E0,1.047023251E1,1.147155883E0,1.207430813E1
3.831045375E0,5.978986750E0,1.129610611E1,1.129659260E0,1.283068299E1
3.841048375E0,6.285188477E0,1.203262841E1,6.970009696E-1,1.359314353E1
3.851051375E0,6.894348480E0,1.287610564E1,2.910106605E-1,1.460858736E1
3.861054375E0,7.504318323E0,1.359617037E1,-1.146194967E-1,1.553009272E1
3.871057375E0,7.874924791E0,1.409139913E1,-7.630014163E-1,1.616057366E1
3.881060375E0,7.708969116E0,1.395656701E1,-1.715737379E0,1.603613801E1
3.891063375E0,8.235473464E0,1.423482665E1,-2.764106893E0,1.667613864E1
3.901067375E0,9.276558516E0,1.436980845E1,-4.354002251E0,1.764945519E1
3.911070375E0,9.187048754E0,1.282309829E1,-4.619566414E0,1.643697382E1
3.921073375E0,8.180267562E0,1.110910280E1,-3.949008892E0,1.435003880E1
3.931076375E0,6.789301497E0,9.803231848E0,-2.978237777E0,1.229096700E1
3.941079375E0,5.703618561E0,9.011571473E0,-1.857513063E0,1.082543486E1
3.951082375E0,5.055368167E0,8.554722083E0,-6.794534755E-1,9.960003727E0
3.961085375E0,4.599116946E0,8.184046617E0,4.163626850E-1,9.397013015E0
3.971088375E0,4.185285521E0,7.960760747E0,1.327268836E0,9.091312839E0
3.981091375E0,3.798943318E0,7.909784136E0,1.995734224E0,8.998867180E0
3.991094375E0,3.400459372E0,7.999649409E0,2.376292069E0,9.011341665E0
4.001097375E0,3.003454480E0,8.331408146E0,2.458041991E0,9.191032093E0
4.011100375E0,2.773962375E0,9.039459184E0,2.291045512E0,9.729109884E0
4.021103375E0,2.713849490E0,9.481346719E0,2.190660514E0,1.010247040E1
4.031106375E0,2.651129331E0,9.696265808E0,2.142129793E0,1.027787806E1
4.041109375E0,2.534677938E0,9.883369693E0,1.987791367E0,1.039504224E1
4.051112375E0,2.475227543E0,1.005059187E1,1.827311025E0,1.051095685E1
4.061115375E0,2.418009614E0,1.029150184E1,1.687016441E0,1.070550349E1
4.071118375E0,2.483044977E0,1.055935109E1,1.484050230E0,1.094841600E1
4.081122375E0,2.667928089E0,1.038042395E1,8.712339628E-1,1.075314328E1
4.091125375E0,2.844933247E0,9.737802089E0,-6.722426891E-2,1.014509506E1
4.101128375E0,2.969096240E0,8.649083864E0,-2.847510992E0,9.577604242E0
4.111131375E0,2.735114059E0,5.769572815E0,-1.186990157E1,1.347825592E1
4.121134375E0,1.866903691E0,1.870688009E0,-1.466518523E1,1.490142479E1
4.131137375E0,1.471097624E0,4.825305374E0,-4.485588577E0,6.750422583E0
4.141140375E0,2.251029361E0,8.694774007E0,1.614502780E0,9.125395742E0
4.151143375E0,1.483791783E0,7.178522576E0,4.832735431E-1,7.346181168E0
4.161146375E0,-3.261004595E-1,2.339973843E-1,3.670881987E-3,4.013848040E-1
4.171149375E0,-5.459007311E0,-1.508356988E1,-1.646920913E0,1.612535859E1
4.181152375E0,-1.101914105E1,-3.082629639E1,4.079913433E0,3.298981224E1
4.191155375E0,-9.864209536E0,-4.533752326E1,2.097494020E1,5.091897251E1
4.201158375E0,-4.361798051E0,-4.786950329E1,1.988856963E1,5.201989840E1
4.211161375E0,-9.443722518E-1,-3.937377494E1,3.652566753E0,3.955410517E1
4.221164375E0,2.765329838E0,-2.671046234E1,-4.646150195E0,2.725220283E1
4.231167375E0,3.988140213E0,-1.719921998E1,-1.049957851E1,2.054165473E1
4.241170375E0,-7.240351327E-1,-1.357897838E1,-1.751074208E1,2.217067814E1
4.251173375E0,-5.201874833E0,-1.299304411E1,-1.881907179E1,2.345284972E1
4.261177375E0,-8.059677510E0,-1.641062471E1,-1.283021085E1,2.233565122E1
4.271180375E0,-9.296198144E0,-1.948794414E1,-5.131778412E0,2.219311642E1
4.281183375E0,-8.582866486E0,-1.865794942E1,-5.784328848E-1,2.054554108E1
4.291186375E0,-7.627465362E0,-1.641181754E1,2.399117260E0,1.825600577E1
4.301189375E0,-6.847038658E0,-1.456054931E1,4.434990281E0,1.669013701E1
4.311192375E0,-6.016574407E0,-1.312923044E1,6.389210443E0,1.579233579E1
4.321195375E0,-5.027000985E0,-1.177954104E1,7.706820849E0,1.494735473E1
4.331198375E0,-3.860796627E0,-1.009921849E1,7.803764176E0,1.333411789E1
4.341201375E0,-2.950778376E0,-8.635115451E0,6.543665814E0,1.122906381E1
4.351204375E0,-2.288486478E0,-7.063990824E0,5.367445761E0,9.162238303E0
4.361207375E0,-1.393530654E0,-5.155635636E0,4.764301958E0,7.156890361E0
4.371210375E0,-3.077448070E-1,-3.024521998E0,4.562900462E0,5.482928124E0
4.381213375E0,7.323014876E-1,-8.303174865E-1,4.278862606E0,4.419768976E0
4.391216375E0,1.646639662E0,1.082521346E0,3.601298951E0,4.105195340E0
4.401219375E0,2.235321547E0,2.662480531E0,2.619980628E0,4.353132606E0
4.411222375E0,2.574954437E0,4.213955589E0,1.838041835E0,5.269365222E0
4.421225375E0,2.799184340E0,5.904542339E0,1.743454351E0,6.763038243E0
4.431228375E0,3.110252996E0,7.703158153E0,1.776821487E0,8.495258315E0
4.441232375E0,3.677460981E0,9.691272286E0,1.024182506E0,1.041601784E1
4.451235375E0,3.943794345E0,1.183554099E1,-2.665270530E-1,1.247816417E1
4.461238375E0,4.898886444E0,1.317775297E1,-2.148052438E0,1.422203892E1
4.471241000E0,7.421289614E0,1.399739110E1,-6.046479991E0,1.695766545E1
4.481244000E0,1.095932871E1,1.510860298E1,-1.138575562E1,2.186349014E1
4.491247000E0,1.341567735E1,1.541675125E1,-1.642752083E1,2.622060370E1
4.501250000E0,1.010368693E1,2.120262142E1,-1.990131422E1,3.078470322E1
4.511253000E0,9.773274808E0,1.041147501E1,-1.030613742E1,1.761057014E1
4.521256000E0,8.974190809E0,8.904413645E0,-3.527021770E0,1.312495964E1
4.531259000E0,6.867116243E0,1.113121814E1,-3.916529363E0,1.365285703E1
4.541262000E0,6.422948878E0,6.273932587E0,-3.952537102E0,9.810150454E0
4.551265000E0,7.193195579E0,5.496014339E-1,1.896718644E0,7.459334152E0
4.561268000E0,8.294425676E0,7.751501763E-1,4.594601727E0,9.513607104E0
4.571271000E0,9.045283595E0,2.448316317E0,4.791169914E0,1.052457682E1
4.581274000E0,9.541018724E0,4.439371015E0,7.080043770E0,1.268329898E1
4.591277000E0,8.989436839E0,6.371323811E0,7.388356926E0,1.326618106E1
4.601280000E0,8.300577532E0,8.288784868E0,7.142875611E0,1.373405308E1
4.611284000E0,7.226770291E0,9.569125121E0,6.285759165E0,1.353902259E1
4.621287000E0,5.967970596E0,1.017140938E1,5.068762969E0,1.283614428E1
4.631290000E0,4.818960853E0,1.053932555E1,4.106346356E0,1.229478943E1
4.641293000E0,3.953052827E0,1.072758718E1,3.256082847E0,1.188738108E1
4.651296000E0,3.292742843E0,1.073527978E1,2.348839391E0,1.147194115E1
4.661299000E0,2.622686135E0,1.058801765E1,1.604163734E0,1.102533181E1
4.671302000E0,2.032764349E0,1.041394955E1,1.038799961E0,1.066121857E1
4.681305000E0,1.587889763E0,1.025750729E1,5.923018956E-1,1.039657017E1
4.691308000E0,1.225899021E0,1.013610740E1,2.343236589E-1,1.021265927E1
4.701311000E0,8.982619862E-1,1.012280616E1,-2.902090073E-2,1.016262374E1
4.711314000E0,4.428150500E-1,1.015313800E1,-2.843921971E-1,1.016676819E1
4.721317000E0,-1.756126290E0,1.015124818E1,-1.699249400E0,1.044122923E1
4.731320000E0,-3.839781734E0,1.013772123E1,-6.012885983E0,1.239645568E1
4.741323000E0,-3.746806912E0,7.648898331E0,-9.094753379E0,1.246028678E1
4.751326000E0,-1.008416586E0,5.585952117E0,-6.071831764E0,8.311853345E0
4.761329000E0,1.959163508E-1,7.863093535E0,-3.092199426E0,8.451527699E0
4.771332000E0,-1.169732202E-1,7.723962547E0,-2.448642007E0,8.103649044E0
4.781336000E0,-1.343674077E-1,2.652025124E0,-1.529291307E0,3.064314566E0
4.791339000E0,-2.368441013E-1,-7.325933806E0,-1.047602359E0,7.404246887E0
4.801342000E0,-1.653428426E0,-2.404921440E1,-1.736950493E-1,2.410661131E1
4.811345000E0,-1.796547654E0,-4.380330275E1,3.882537160E0,4.401171446E1
4.821348000E0,2.870102879E-1,-5.817619853E1,9.814625148E0,5.899897726E1
4.831351000E0,2.011310768E0,-5.894714690E1,6.131927108E0,5.929934257E1
4.841354000E0,4.827091699E0,-4.020052913E1,3.420303068E0,4.063350625E1
4.851357000E0,4.940162231E0,-2.057812008E1,2.176366410E0,2.127441655E1
4.861360000E0,3.540639936E0,-1.296704622E1,-6.828372592E-1,1.345907447E1
4.871363000E0,1.975721983E0,-1.084897421E1,-2.384965244E0,1.128236579E1
4.881366000E0,-8.674095914E-2,-1.280764059E1,-2.451086728E0,1.304036072E1
4.891369000E0,-5.952031378E-1,-1.652335669E1,-1.381946150E0,1.659172560E1
4.901372000E0,7.246191233E-2,-1.812431264E1,-8.353361517E-1,1.814369714E1
4.911375000E0,-1.715245628E-1,-1.793793849E1,-6.899498123E-1,1.795202186E1
4.921378000E0,-2.224331266E-1,-1.664043666E1,-4.486860931E-1,1.664797068E1
4.931381000E0,3.262108988E-1,-1.439648345E1,-1.086658617E-1,1.440058879E1
4.941384000E0,9.098224432E-1,-1.202857278E1,2.464484636E-1,1.206544972E1
4.951387000E0,1.428325972E0,-9.926212242E0,6.154627168E-1,1.004731800E1
4.961390000E0,2.027387980E0,-7.967709578E0,9.152857161E-1,8.272390579E0
4.971394000E0,2.566822422E0,-5.916126843E0,1.093988906E0,6.541096689E0
4.981397000E0,3.011861899E0,-3.775696251E0,1.141189969E0,4.962812592E0
4.991400000E0,3.281999461E0,-1.656401589E0,8.115660506E-1,3.764814224E0
5.001403000E0,3.333105003E0,3.665853381E-1,-7.653303623E-2,3.354076785E0
5.011406000E0,3.249515254E0,2.266142220E0,-1.353207085E0,4.186396943E0
5.021409000E0,3.059861984E0,4.178409196E0,-2.469607199E0,5.737666641E0
5.031412000E0,2.657167166E0,5.936860485E0,-3.084871110E0,7.198838763E0
5.041415000E0,2.094665897E0,7.557326256E0,-3.287218686E0,8.503329468E0
5.051418000E0,1.421967271E0,8.983964429E0,-3.437348871E0,9.723629726E0
5.061421000E0,1.165455183E0,1.009233047E1,-3.426312836E0,1.072161554E1
5.071424000E0,1.466022679E0,1.080884477E1,-2.889361854E0,1.128400459E1
5.081427000E0,1.778067529E0,1.140548530E1,-1.976541324E0,1.171124821E1
5.091430000E0,2.416748223E0,1.195332146E1,-1.075693552E0,1.224253578E1
5.101433000E0,2.884181805E0,1.245965876E1,-8.040235810E-1,1.281436908E1
5.111436000E0,3.297697481E0,1.319869887E1,-6.657634626E-1,1.362070855E1
5.121439000E0,3.905180210E0,1.347091365E1,-8.336289109E-1,1.405029837E1
5.131442000E0,4.942000596E0,1.412639822E1,-1.865154789E0,1.508168754E1
5.141445000E0,6.149381046E0,1.467199724E1,-3.063537544E0,1.620085345E1
5.151449000E0,6.582177916E0,1.423676091E1,-1.955685475E0,1.580617389E1
5.161452000E0,6.366026233E0,1.351736627E1,-6.674146432E-1,1.495630045E1
5.171455000E0,5.914780814E0,1.279273253E1,5.324768761E-2,1.409402260E1
5.181458000E0,5.437963182E0,1.223505551E1,4.929828447E-1,1.339817372E1
5.191461000E0,4.966110420E0,1.168900275E1,8.649610698E-1,1.272961883E1
5.201464000E0,4.250473205E0,1.094280799E1,1.131661931E0,1.179373680E1
5.211467000E0,3.343087077E0,1.031664720E1,1.210524498E0,1.091214050E1
5.221470000E0,2.641822903E0,9.947631762E0,1.395953740E0,1.038668825E1
5.231473000E0,2.197607006E0,9.941013883E0,1.669535605E0,1.031700454E1
5.241476000E0,1.879328878E0,1.016212634E1,1.978688421E0,1.052216217E1
5.251479000E0,1.603256831E0,1.043847043E1,2.174322808E0,1.078238272E1
5.261482000E0,1.347427843E0,1.060260412E1,2.161961794E0,1.090435026E1
5.271485000E0,1.092835323E0,1.065223060E1,1.986210864E0,1.089079150E1
5.281488000E0,7.885796227E-1,1.058454090E1,1.699235952E0,1.074903561E1
5.291491000E0,4.969389246E-1,1.049827108E1,1.465602849E0,1.061172161E1
5.301494000E0,1.964578761E-1,1.038760316E1,1.236539345E0,1.046278762E1
5.311497000E0,-6.036332879E-2,1.025379899E1,1.042373779E0,1.030682204E1
5.321500000E0,-3.381734980E-1,1.015768012E1,8.079998338E-1,1.019537594E1
5.331504000E0,-1.573522277E0,1.009706321E1,-1.419791669E-1,1.021992250E1
5.341507000E0,-2.095816191E0,9.688370313E0,-1.490667524E0,1.002392411E1
5.351510000E0,4.512917951E-1,9.089213142E0,-1.988794164E0,9.315189856E0
5.361513000E0,2.672451788E0,8.521738524E0,-1.070605890E0,8.994899833E0
5.371516000E0,1.218196264E0,4.892855918E0,-1.499538919E0,5.260480790E0
5.381519000E0,-1.502329503E-1,5.360423255E0,-6.025029480E-1,5.396268823E0
5.391522000E0,2.994095280E-1,6.769341441E0,6.964197564E-1,6.811653991E0
5.401525000E0,8.881467417E-2,4.990271115E0,-1.154632499E-1,4.992396780E0
5.411528000E0,5.325066604E-1,-8.933896476E-1,-6.090595040E-1,1.205264239E0
5.421531000E0,1.129977787E0,-1.528550465E1,-1.030119842E0,1.536179185E1
5.431534000E0,1.143833495E0,-3.165486789E1,1.747202416E0,3.172367779E1
5.441537000E0,1.628730956E0,-4.791828310E1,5.733447547E0,4.828754540E1
5.451540000E0,5.958893963E0,-5.784554083E1,1.359878875E1,5.972053304E1
5.461543000E0,1.310507676E1,-4.693069306E1,1.348761447E1,5.055836955E1
5.471546167E0,7.674445401E0,-2.339848479E1,-2.075664493E0,2.471223555E1
5.481549167E0,1.733888014E0,-1.271001080E1,-7.576604526E0,1.489817702E1
5.491552167E0,-1.799651648E0,-9.056130765E0,-1.109375152E1,1.443341863E1
5.501555167E0,-4.594833569E0,-1.092160013E1,-1.319512388E1,1.773429275E1
5.511558167E0,-5.927594402E0,-1.699000426E1,-1.163765484E1,2.142969039E1
5.521562167E0,-5.589700767E0,-2.147918537E1,-7.582509044E0,2.345409564E1
5.531565167E0,-4.196735831E0,-2.185037129E1,-3.868021447E0,2.258346535E1
5.541568167E0,-2.211281012E0,-1.901482487E1,-1.003445941E0,1.916925227E1
5.551571167E0,-7.921584841E-1,-1.604957903E1,1.200201824E0,1.611387559E1
5.561574167E0,-1.004637896E-1,-1.392540369E1,2.668394989E0,1.417911467E1
5.571577167E0,2.821364144E-1,-1.221123629E1,3.279023813E0,1.264697157E1
5.581580167E0,5.956496824E-1,-1.076399428E1,2.902685904E0,1.116440580E1
5.591583167E0,9.373371743E-1,-9.445603859E0,2.377771415E0,9.785286411E0
5.601586167E0,1.425924082E0,-7.979724437E0,2.041275848E0,8.359190671E0
5.611589167E0,1.969637078E0,-6.099931728E0,2.036377636E0,6.725732018E0
5.621592167E0,2.409281767E0,-3.886654184E0,2.462932017E0,5.193915046E0
5.631595167E0,2.574548932E0,-1.545457689E0,2.813885409E0,4.115178340E0
5.641598167E0,2.566420718E0,5.042515987E-1,2.519982131E0,3.631954696E0
5.651601167E0,2.482439498E0,2.086884715E0,1.661255363E0,3.643811611E0
5.661604167E0,2.463242505E0,3.548312067E0,8.014661551E-1,4.393225485E0
5.671607167E0,2.561390358E0,5.095176011E0,3.481168709E-1,5.713381180E0
5.681610167E0,2.589345896E0,6.567303184E0,3.061525736E-1,7.065968630E0
5.691613167E0,2.566911007E0,8.008788607E0,4.751587772E-1,8.423508944E0
5.701617167E0,2.515853997E0,9.392787715E0,7.009612888E-1,9.749119402E0
5.711620167E0,2.569965008E0,1.050885921E1,1.000277992E0,1.086468583E1
5.721623167E0,2.709751469E0,1.127635305E1,1.205360822E0,1.165983644E1
5.731626167E0,3.055417516E0,1.171434224E1,1.013289070E0,1.214858614E1
5.741629167E0,3.746776215E0,1.209896975E1,6.815830314E-1,1.268416164E1
5.751632167E0,4.479547234E0,1.246943179E1,5.396424562E-1,1.326062919E1
5.761635167E0,5.005289104E0,1.286617473E1,-4.093121854E-1,1.381154979E1
5.771638167E0,6.136820058E0,1.346534126E1,-2.117980208E0,1.494863926E1
5.781641167E0,7.795131932E0,1.402907132E1,-3.300485433E0,1.638511910E1
5.791644167E0,8.767191188E0,1.399338576E1,-3.165507722E0,1.681365295E1
5.801647167E0,8.936954570E0,1.340334908E1,-2.329398569E0,1.627713185E1
5.811650167E0,9.141690148E0,1.303010961E1,-2.215463233E0,1.607054861E1
5.821653167E0,9.446373353E0,1.296724385E1,-1.757049127E0,1.613910172E1
5.831656167E0,8.567443285E0,1.190305294E1,-4.081350313E-1,1.467141193E1
5.841659167E0,6.921919856E0,1.062927911E1,9.354416531E-1,1.271886788E1
5.851662167E0,5.843603243E0,1.005852187E1,1.533131758E0,1.173337351E1
5.861665167E0,4.931573841E0,9.943943338E0,1.561991860E0,1.120902530E1
5.871668167E0,4.099762391E0,1.011612747E1,1.309796771E0,1.099361879E1
5.881672167E0,3.438706595E0,1.040618912E1,9.577604022E-1,1.100139901E1
5.891675167E0,2.885613204E0,1.062939606E1,6.147487718E-1,1.103126195E1
5.901678167E0,2.339115326E0,1.074562584E1,2.879186529E-1,1.100103779E1
5.911681167E0,1.580341300E0,1.060404955E1,-1.769262937E-1,1.072262320E1
5.921684167E0,3.261017020E-1,1.027941915E1,-1.049653051E0,1.033801586E1
5.931687167E0,-7.847473575E-1,9.893706400E0,-1.762809658E0,1.008011670E1
5.941690167E0,-1.009422526E0,9.738437097E0,-1.830504774E0,9.960262981E0
5.951693167E0,-7.720132913E-1,9.721870181E0,-1.474122827E0,9.863255165E0
5.961696167E0,-4.072832747E-1,9.798941161E0,-1.019507219E0,9.860249617E0
5.971699167E0,-6.003639269E-1,9.655523579E0,-2.479199556E0,9.986791420E0
5.981702167E0,-1.669776802E0,8.353494249E0,-5.506445187E0,1.014346880E1
5.991705167E0,-1.312391620E0,6.991513417E0,-2.719938780E0,7.615884623E0
6.001708167E0,4.382038627E-2,7.529107009E0,-4.161755741E-2,7.529349547E0
6.011711167E0,1.008175004E-1,8.503869433E0,2.018266251E-1,8.506861553E0
6.021714167E0,1.466767925E-1,8.914802978E0,3.622672059E-1,8.923366167E0
6.031717167E0,3.545857918E-1,8.312518716E0,1.818472739E-1,8.322065063E0
6.041720167E0,1.137175271E0,4.221296768E0,-1.017395643E0,4.488608682E0
6.051723167E0,2.225868646E0,-6.998657545E0,-1.792216621E0,7.559612363E0
6.061727167E0,2.272520656E0,-2.372431971E1,8.897789919E-1,2.384951577E1
6.071730167E0,3.474495648E0,-4.114178116E1,1.201033064E1,4.299960836E1
6.081733167E0,4.010112880E0,-5.575899701E1,1.979661164E1,5.930474336E1
6.091736167E0,3.758270963E0,-5.826235843E1,1.005254251E1,5.924255752E1
6.101739167E0,3.027216979E0,-3.791518933E1,1.747611136E0,3.807597365E1
6.111742167E0,1.264655097E0,-1.644519813E1,-3.912363807E0,1.695141541E1
6.121745167E0,-8.204184428E-1,-9.654223743E0,-7.766230314E0,1.241738522E1
6.131748167E0,-3.923454221E0,-9.628092536E0,-1.115285401E1,1.524728866E1
6.141751167E0,-5.620806200E0,-1.382080987E1,-1.272257413E1,1.960796114E1
6.151754167E0,-5.146499947E0,-1.811560263E1,-9.260029022E0,2.098593953E1
6.161757167E0,-4.806316541E0,-2.021875254E1,-4.789008783E0,2.132681969E1
6.171760167E0,-4.010211698E0,-1.974956260E1,-1.702618566E0,2.022438951E1
6.181763167E0,-2.869271113E0,-1.828494033E1,6.750469407E-1,1.852100019E1
6.191766167E0,-1.835743879E0,-1.703271466E1,2.913280474E0,1.737729920E1
6.201769167E0,-8.974508312E-1,-1.588058631E1,4.108016905E0,1.642784960E1
6.211772167E0,3.017356052E-1,-1.441177626E1,3.546005341E0,1.484467895E1
6.221775167E0,2.061640823E0,-1.179732359E1,5.114488780E0,1.302248833E1
6.231778167E0,3.789182854E0,-7.400943058E0,8.516245649E0,1.190202944E1
6.241782167E0,2.739902344E0,-6.167906780E0,-2.146232200E-1,6.752495985E0
6.251785167E0,3.116347842E0,-2.930996368E0,3.515429081E0,5.537201929E0
6.261788167E0,3.409388948E0,3.675887203E-1,4.214600537E0,5.433407048E0
6.271791167E0,3.465816333E0,5.287350601E-1,1.621571479E0,3.862762959E0
6.281794167E0,3.474550027E0,1.238995761E0,2.443878865E-1,3.696935734E0
6.291797167E0,3.004897572E0,2.484665533E0,-1.354963589E0,4.127820074E0
6.301800167E0,2.513399336E0,3.828287863E0,-2.502156309E0,5.218596591E0
6.311803167E0,2.000139517E0,5.672780930E0,-3.246315073E0,6.835171039E0
6.321806167E0,1.463243205E0,7.723261465E0,-3.977115873E0,8.809500497E0
6.331809167E0,1.014371902E0,9.399670472E0,-5.124325551E0,1.075367229E1
6.341812167E0,1.717112937E0,1.026897836E1,-4.635987734E0,1.139705118E1
6.351815167E0,2.619526300E0,1.090326444E1,-3.446197463E0,1.173112826E1
6.361818167E0,3.028726146E0,1.132718055E1,-2.487213750E0,1.198600991E1
6.371821167E0,3.307440112E0,1.168210304E1,-1.587475780E0,1.224462212E1
6.381824167E0,3.687590405E0,1.210050640E1,-1.247886452E0,1.271132561E1
6.391827167E0,4.381956035E0,1.255294991E1,-1.029870166E0,1.333561857E1
6.401830167E0,5.093307241E0,1.265655790E1,-8.482473886E-1,1.366929991E1
6.411833167E0,5.957766620E0,1.271437049E1,-6.892294353E-1,1.405792436E1
6.421836167E0,6.747910811E0,1.292787689E1,-8.755386829E-2,1.458327696E1
6.431840167E0,6.984570433E0,1.290175621E1,5.876498508E-1,1.468280864E1
6.441843167E0,6.887751067E0,1.274674886E1,6.553179234E-1,1.450345348E1
6.451846167E0,6.986966622E0,1.265695668E1,6.694944978E-1,1.447288768E1
6.461849167E0,7.227231637E0,1.272275072E1,1.041572710E0,1.466922413E1
6.471851750E0,6.938384446E0,1.231913964E1,1.854587701E0,1.425979929E1
6.481854750E0,5.939206388E0,1.142681126E1,2.125693270E0,1.305238522E1
6.491857750E0,5.166298034E0,1.079814904E1,1.859998714E0,1.211405189E1
6.501860750E0,4.532497280E0,1.057670095E1,1.698634273E0,1.163165908E1
6.511863750E0,3.974972576E0,1.062121346E1,1.508531352E0,1.144055284E1
6.521866750E0,3.511171723E0,1.064158165E1,1.296313677E0,1.128060354E1
6.531869750E0,2.997462838E0,1.056501821E1,1.070760330E0,1.103407998E1
6.541872750E0,2.557813616E0,1.038991866E1,6.426282229E-1,1.071941189E1
6.551875750E0,2.455620951E0,1.027539159E1,1.797831702E-1,1.056627032E1
6.561878750E0,2.889199886E0,1.018952406E1,-8.679965056E-2,1.059157262E1
6.571881750E0,3.431257534E0,1.006314000E1,-1.743604624E-1,1.063347152E1
6.581884750E0,4.031171335E0,9.871704497E0,-1.798738386E-1,1.066457906E1
6.591887750E0,4.558864714E0,9.403976362E0,-4.524136931E-1,1.046053044E1
6.601890750E0,4.781011546E0,8.593103791E0,-1.636684193E0,9.968863492E0
6.611894750E0,4.786520208E0,7.910236711E0,-3.242245411E0,9.797692373E0
6.621897750E0,4.941541589E0,7.595185808E0,-4.497225705E0,1.011586476E1
6.631900750E0,4.971015649E0,7.138905936E0,-5.126600118E0,1.009737606E1
6.641903750E0,4.047510502E0,6.663824342E0,-4.036794310E0,8.779783849E0
6.651906750E0,2.598853761E0,6.785091501E0,-2.113394237E0,7.566897829E0
6.661909750E0,2.059287757E0,7.260518081E0,-2.115756512E-2,7.546935571E0
6.671912750E0,2.008022002E0,6.181326724E0,7.784538531E-1,6.545757621E0
6.681915750E0,2.545707833E0,1.422893617E0,2.276349559E-1,2.925247390E0
6.691918750E0,2.756760451E0,-9.462695855E0,2.244295122E-1,9.858636297E0
6.701921750E0,1.345440521E0,-2.380572231E1,4.593793641E0,2.428220675E1
6.711924750E0,-3.362535282E-1,-3.869711409E1,9.058120573E0,3.974454999E1
6.721927750E0,-7.695196000E-1,-5.194950326E1,1.619699201E1,5.442137080E1
6.731930750E0,7.369622301E-1,-5.706073690E1,1.741088217E1,5.966246413E1
6.741933750E0,-1.073096365E-1,-4.140204775E1,3.812214451E0,4.157732618E1
6.751936750E0,-1.657261276E0,-2.152442410E1,-3.104466299E0,2.181020539E1
6.761939750E0,-3.621799289E0,-1.132027265E1,-8.393145388E0,1.455028840E1
6.771942750E0,-5.701850363E0,-7.785446604E0,-1.661284248E1,1.921225681E1
6.781946750E0,-6.993888556E0,-1.067614104E1,-2.169710876E1,2.517258415E1
6.791949750E0,-8.570620077E0,-1.862811576E1,-1.862063249E1,2.769819813E1
6.801952750E0,-8.448429642E0,-2.319609628E1,-9.896456931E0,2.659651680E1
6.811955750E0,-6.640563533E0,-2.267945736E1,-3.304221219E0,2.386153281E1
6.821958750E0,-4.193528341E0,-2.039049462E1,6.897048870E-1,2.082867360E1
6.831961750E0,-2.131664885E0,-1.794307001E1,3.376871704E0,1.838208418E1
6.841964750E0,-8.843790152E-1,-1.498422101E1,5.869659605E0,1.611713093E1
6.851967750E0,-6.232558858E-1,-1.255827322E1,6.827121872E0,1.430762968E1
6.861970750E0,-2.226588292E-1,-1.123305558E1,5.799025240E0,1.264356787E1
6.871973750E0,1.420510876E0,-9.307638221E0,4.402632959E0,1.039390001E1
6.881976750E0,2.908444242E0,-7.075539660E0,2.962807560E0,8.203690512E0
6.891979750E0,3.946446058E0,-4.845694031E0,2.266862597E0,6.647845753E0
6.901982750E0,4.479247856E0,-2.709205631E0,1.962012162E0,5.590433635E0
6.911985750E0,4.467040624E0,-6.474803156E-1,2.248356160E0,5.042696513E0
6.921988750E0,4.318307046E0,1.588899577E0,3.485942742E0,5.772709451E0
6.931991750E0,4.183017386E0,3.796142794E0,4.133669225E0,6.999682552E0
6.941994750E0,4.214649946E0,5.688844401E0,3.715013262E0,7.995470488E0
6.951998750E0,4.203412474E0,7.100024291E0,2.763231565E0,8.701406210E0
6.962001750E0,3.913023373E0,8.305715480E0,1.948291086E0,9.385760476E0
6.972004750E0,3.593666288E0,9.267156778E0,1.543346259E0,1.005865547E1
6.982007750E0,3.521114036E0,1.023853893E1,1.763952935E0,1.096984291E1
6.992010750E0,3.603705957E0,1.126333831E1,2.203796868E0,1.202938931E1
7.002013750E0,3.748652586E0,1.181219306E1,1.921769870E0,1.254087320E1
7.012016750E0,3.930109814E0,1.202918206E1,1.238764796E0,1.271540493E1
7.022019750E0,4.205505778E0,1.240966974E1,1.158573157E-1,1.310341959E1
7.032022750E0,4.988062037E0,1.306129982E1,-1.648394412E0,1.407819307E1
7.042025750E0,6.286859027E0,1.418689352E1,-4.095145429E0,1.604876195E1
7.052028750E0,7.614790937E0,1.531761288E1,-6.273218057E0,1.821997722E1
7.062031750E0,8.205876027E0,1.576415070E1,-6.794524814E0,1.902657132E1
7.072034750E0,7.952043718E0,1.532680938E1,-5.403614298E0,1.809268174E1
7.082037750E0,7.355512531E0,1.450076153E1,-3.758297861E0,1.668833282E1
7.092040750E0,6.736005296E0,1.359964712E1,-1.996055821E0,1.530713585E1
7.102043750E0,5.863718249E0,1.244298951E1,-3.780178142E-1,1.376059872E1
7.112046750E0,4.873508066E0,1.116761472E1,1.052004143E0,1.223002093E1
7.122049750E0,4.187738136E0,1.007784809E1,2.104052725E0,1.111427958E1
7.132053750E0,3.611328972E0,9.239880102E0,2.846946151E0,1.032095846E1
7.142056750E0,3.296450562E0,8.647505116E0,3.281060398E0,9.818925011E0
7.152059750E0,3.241490536E0,8.311467386E0,3.184728690E0,9.472605124E0
7.162062750E0,3.350238222E0,8.506030564E0,2.658910221E0,9.520843222E0
7.172065750E0,3.630207585E0,9.300991691E0,1.976392220E0,1.017806365E1
7.182068750E0,3.855861577E0,9.955387509E0,1.466723176E0,1.077630205E1
7.192071750E0,3.982204120E0,1.035990023E1,1.157121293E0,1.115905068E1
7.202074750E0,3.914293973E0,1.060529734E1,9.890875179E-1,1.134778935E1
7.212077750E0,3.542321595E0,1.074089310E1,9.279665726E-1,1.134794911E1
7.222080750E0,3.012213901E0,1.069087134E1,7.421397203E-1,1.113188816E1
7.232083750E0,2.535574316E0,1.041373203E1,3.169758064E-1,1.072265945E1
7.242086750E0,2.540085151E0,1.011232444E1,-2.675259036E-1,1.042989493E1
7.252089750E0,2.801970830E0,9.247970309E0,-1.548734468E0,9.786448479E0
7.262092750E0,3.222126896E0,6.640881037E0,-5.598043574E0,9.263989127E0
7.272095750E0,3.450900963E0,4.761204103E0,-6.271249300E0,8.596880233E0
7.282098750E0,1.732819727E0,4.227594804E0,-5.978354082E0,7.524356422E0
7.292101750E0,1.299972426E0,6.223563502E0,-1.963282177E0,6.654107594E0
7.302105750E0,1.573773415E0,7.638343522E0,7.185023510E-1,7.831813337E0
7.312108750E0,1.454205018E0,7.212508932E0,1.143327711E0,7.445951624E0
7.322111750E0,1.460674231E0,4.246374307E0,1.159522160E0,4.637861102E0
7.332114750E0,1.128685625E0,-6.182718946E0,2.239856063E0,6.672098620E0
7.342117750E0,1.363007019E0,-2.076889835E1,5.660422840E0,2.156954598E1
7.352120750E0,4.447171493E-1,-4.043530186E1,1.034677557E1,4.174047405E1
7.362123750E0,-8.729105057E-1,-6.197014804E1,1.757102805E1,6.441895876E1
7.372126750E0,2.198305748E0,-7.269418479E1,2.257428934E1,7.615034858E1
7.382129750E0,1.881562369E0,-4.789537605E1,1.156375627E0,4.794626710E1
7.392132750E0,-1.157586439E0,-2.115125948E1,-8.879772309E0,2.296880798E1
7.402135750E0,-3.709199668E0,-1.055962708E1,-1.667120237E1,2.007966321E1
7.412138750E0,-5.424215793E0,-7.717398462E0,-2.499203816E1,2.671296179E1
7.422141750E0,-6.505782874E0,-1.189090126E1,-2.416672472E1,2.770828987E1
7.432144750E0,-6.121309733E0,-1.807034401E1,-1.347469329E1,2.335754963E1
7.442147750E0,-4.378538630E0,-2.088548716E1,-5.415234470E0,2.201590195E1
7.452150750E0,-3.422957996E0,-2.173058757E1,-7.657384980E-1,2.201184756E1
7.462153750E0,-2.713304822E0,-2.020579278E1,2.638392926E0,2.055716911E1
7.472157625E0,-1.874170172E0,-1.688899010E1,4.926382683E0,1.769236408E1
7.482161625E0,-1.170324160E0,-1.378783859E1,6.178555144E0,1.515416429E1
7.492164625E0,-3.778481718E-1,-1.181169838E1,5.626452856E0,1.308877228E1
7.502167625E0,7.413283461E-1,-9.883356829E0,4.649490709E0,1.094751450E1
7.512170625E0,1.863322272E0,-7.637372884E0,3.763991879E0,8.716023711E0
7.522173625E0,2.637652084E0,-5.264290937E0,3.068145150E0,6.639539309E0
7.532176625E0,3.032846971E0,-3.009912729E0,2.566779152E0,4.984585299E0
7.542179625E0,3.065671193E0,-8.921161240E-1,2.276509334E0,3.921314294E0
7.552182625E0,3.094520770E0,1.218345734E0,2.358861519E0,4.077334030E0
7.562185625E0,3.188999204E0,3.213504007E0,2.268453040E0,5.063813101E0
7.572188625E0,3.259143865E0,4.944746448E0,1.998756065E0,6.250404945E0
7.582191625E0,3.357336742E0,6.711568027E0,2.071286682E0,7.785055164E0
7.592194625E0,3.142244283E0,8.070266232E0,1.921247129E0,8.870968759E0
7.602197625E0,3.160103726E0,9.201305435E0,2.172317213E0,9.968412078E0
7.612200625E0,3.767277722E0,1.034210598E1,2.437813548E0,1.127361843E1
7.622203625E0,4.350710561E0,1.098325084E1,2.060804964E0,1.199197225E1
7.632206625E0,4.385519620E0,1.182867168E1,2.926556577E0,1.295048221E1
7.642209625E0,4.090461225E0,1.274708683E1,3.325826097E0,1.379424572E1
7.652212625E0,5.674612863E0,1.433870244E1,-2.031582334E0,1.555400095E1
7.662215625E0,8.488867232E0,1.545299814E1,-6.655932940E0,1.884562182E1
7.672219625E0,9.208381736E0,1.486632828E1,-6.250126233E0,1.857057050E1
7.682222625E0,8.420365931E0,1.420917608E1,-4.579384933E0,1.713983704E1
7.692225625E0,7.267552866E0,1.361193680E1,-3.526665090E0,1.582844006E1
7.702228625E0,6.409834743E0,1.301871104E1,-3.118658661E0,1.484246780E1
7.712231625E0,6.118590778E0,1.272888795E1,-1.912454671E0,1.425199019E1
7.722234625E0,5.891274422E0,1.230494377E1,-1.059322518E-1,1.364294606E1
7.732237625E0,5.393443651E0,1.155576809E1,1.200239831E0,1.280880893E1
7.742240625E0,4.806912957E0,1.097218674E1,1.805015007E0,1.211418066E1
7.752243625E0,4.177957206E0,1.077916664E1,1.805862268E0,1.170072213E1
7.762246625E0,3.629144561E0,1.081654204E1,1.590698181E0,1.151948752E1
7.772249625E0,3.260982229E0,1.080729642E1,1.336362426E0,1.136738869E1
7.782252625E0,2.952318240E0,1.071883273E1,1.131119894E0,1.117537428E1
7.792255625E0,2.659602531E0,1.062550649E1,9.209218472E-1,1.099195027E1
7.802258625E0,2.379266694E0,1.053215569E1,7.716459399E-1,1.082509358E1
7.812261625E0,2.078262411E0,1.030053228E1,6.757650518E-1,1.052980523E1
7.822264625E0,1.477662439E0,9.727153725E0,5.186971815E-1,9.852413544E0
7.832267625E0,9.908405131E-1,8.920765969E0,2.224871768E-1,8.978381309E0
7.842270625E0,1.381315528E0,8.524335857E0,1.075110000E-1,8.636196675E0
7.852273625E0,2.048843022E0,8.625402056E0,1.898210853E-1,8.867432007E0
7.862277625E0,2.457423356E0,8.917035445E0,2.129760776E-1,9.251908424E0
7.872280625E0,2.606748964E0,9.068998148E0,2.219708312E-1,9.438810233E0
7.882283625E0,2.717988149E0,8.792418416E0,-2.271935642E-1,9.205742669E0
7.892286625E0,2.505779829E0,8.308435605E0,-1.610146020E0,8.826188586E0
7.902289625E0,2.141727797E0,8.276853624E0,-2.256590794E0,8.842256832E0
7.912292625E0,1.973251534E0,7.971792689E0,-3.666203045E0,8.993566871E0
7.922295625E0,3.149686911E0,6.882352332E0,-7.195051485E0,1.044299129E1
7.932298625E0,2.412002331E0,5.922236014E0,-5.933266202E0,8.723203681E0
7.942301625E0,1.701175620E0,7.796067486E0,1.057919186E-1,7.980216706E0
7.952304625E0,1.476757436E0,8.161228443E0,1.430807823E0,8.416274309E0
7.962307625E0,1.696461594E0,6.546140941E0,1.554944211E0,6.938861193E0
7.972310625E0,1.609959055E0,-1.690207851E-1,1.273514214E0,2.059702561E0
7.982313625E0,8.242799440E-1,-1.449458570E1,3.339748317E0,1.489719339E1
7.992316625E0,4.181560260E-1,-2.959480260E1,8.098246329E0,3.068564468E1
8.002319625E0,-2.273123065E0,-4.254626833E1,9.136518286E0,4.357554364E1
8.012322625E0,-4.012444458E0,-5.056409205E1,8.555640095E0,5.143953823E1
8.022325625E0,-1.106974402E0,-4.808984041E1,6.495345009E0,4.853913524E1
8.032328625E0,2.425028465E0,-3.448899227E1,2.328246667E0,3.465244701E1
8.042332625E0,2.114002932E0,-1.957696449E1,7.951168098E-2,1.969093368E1
8.052335625E0,9.435665055E-1,-1.235958600E1,-1.691152761E0,1.251038295E1
8.062338625E0,-2.593100905E-1,-1.115328202E1,-6.525717786E0,1.292470248E1
8.072341625E0,-2.540325764E0,-1.477191680E1,-1.146415392E1,1.887033667E1
8.082344625E0,-5.432182624E0,-1.868127864E1,-1.261946784E1,2.318943182E1
8.092347625E0,-7.292556730E0,-1.909762613E1,-1.002391220E1,2.276794947E1
8.102350625E0,-7.050396633E0,-1.834415509E1,-6.130863499E0,2.058649086E1
8.112353625E0,-5.851119838E0,-1.823917768E1,-3.073973655E0,1.939980722E1
8.122356625E0,-4.289984303E0,-1.772876487E1,-7.696010955E-1,1.825665235E1
8.132359625E0,-2.434095158E0,-1.602803204E1,6.452332306E-1,1.622464040E1
8.142362625E0,-7.613077703E-1,-1.395189392E1,1.060262750E0,1.401281879E1
8.152365625E0,4.869694220E-1,-1.218477647E1,1.086757654E0,1.224283297E1
8.162368625E0,1.508168240E0,-1.034161131E1,1.333489689E0,1.053573398E1
8.172371625E0,2.365696768E0,-8.197005801E0,1.937394215E0,8.748766864E0
8.182374625E0,3.282354679E0,-5.824788072E0,2.530114771E0,7.148670442E0
8.192377625E0,4.218928061E0,-3.530110855E0,2.812987277E0,6.178505810E0
8.202380625E0,4.634631180E0,-1.425167599E0,2.908112120E0,5.654027322E0
8.212383625E0,4.499196217E0,4.453245288E-1,2.656525726E0,5.243873518E0
8.222386625E0,4.304599418E0,2.173410058E0,2.054958333E0,5.241768898E0
8.232389625E0,4.218170554E0,3.890189411E0,1.588569210E0,5.953997700E0
8.242393625E0,4.169685150E0,5.586635072E0,1.542277973E0,7.139704967E0
8.252396625E0,4.075316352E0,7.184664491E0,1.820530593E0,8.458246796E0
8.262399625E0,4.037415869E0,8.650821072E0,2.220188953E0,9.801360676E0
8.272402625E0,4.162186096E0,9.920764976E0,2.280766107E0,1.099760269E1
8.282405625E0,4.019930356E0,1.118723914E1,3.102085898E0,1.228564596E1
8.292408625E0,3.666802092E0,1.198734406E1,2.819463653E0,1.284878323E1
8.302411625E0,3.528712493E0,1.209474572E1,1.040698552E0,1.264190411E1
8.312414625E0,3.692770161E0,1.261305929E1,-1.307695867E0,1.320741779E1
8.322417625E0,4.863973888E0,1.349253081E1,-4.565038789E0,1.505145205E1
8.332420625E0,6.498829365E0,1.392672399E1,-6.762062243E0,1.679029214E1
8.342423625E0,7.381368334E0,1.386257887E1,-7.630293660E0,1.746072944E1
8.352426625E0,7.507605042E0,1.337689510E1,-6.970583308E0,1.684916876E1
8.362429625E0,7.293090581E0,1.292479774E1,-5.509266468E0,1.583008477E1
8.372432625E0,6.890878158E0,1.242507131E1,-3.820098837E0,1.471257129E1
8.382435625E0,6.313221783E0,1.179654240E1,-1.732422409E0,1.349134794E1
8.392438625E0,6.054723980E0,1.124698833E1,6.712369680E-1,1.279081655E1
8.402441625E0,5.765382700E0,1.052652950E1,2.779399116E0,1.231959904E1
8.412444625E0,5.314443090E0,9.798963965E0,3.833331671E0,1.178802069E1
8.422447625E0,4.861557527E0,9.289896015E0,3.920655159E0,1.119412553E1
8.432451625E0,4.548806918E0,9.135133665E0,3.875142771E0,1.091599940E1
8.442454625E0,4.238814734E0,9.532971786E0,3.618259385E0,1.104250435E1
8.452457625E0,4.022827943E0,1.001847897E1,3.015099210E0,1.120909848E1
8.462460625E0,3.802796049E0,1.020494901E1,2.448632652E0,1.116234939E1
8.472463750E0,3.568164534E0,1.020616991E1,1.890353365E0,1.097593450E1
8.482466750E0,3.399206314E0,1.014778195E1,1.367634505E0,1.078899932E1
8.492469750E0,3.279745652E0,9.967009435E0,1.025144958E0,1.054271933E1
8.502472750E0,3.204113087E0,9.765392761E0,8.140487784E-1,1.030979689E1
8.512475750E0,3.587759723E0,9.574636706E0,9.636147076E-1,1.027006530E1
8.522478750E0,4.334009159E0,9.271579612E0,9.370706874E-1,1.027735011E1
8.532481750E0,4.596612292E0,8.930474685E0,8.449694395E-2,1.004436969E1
8.542484750E0,4.436835662E0,8.409576064E0,-1.769362779E0,9.671459296E0
8.552487750E0,4.071870295E0,7.937861881E0,-3.383422340E0,9.541348211E0
8.562490750E0,3.650511164E0,7.748072371E0,-4.420620164E0,9.638502988E0
8.572493750E0,3.513974878E0,7.382467026E0,-5.928550422E0,1.009933408E1
8.582496750E0,3.696924900E0,6.508640993E0,-7.508306124E0,1.060209046E1
8.592499750E0,3.349406748E0,6.102168873E0,-5.904108476E0,9.127622221E0
8.602502750E0,2.191929944E0,6.630090001E0,-2.474580840E0,7.408522163E0
8.612505750E0,1.857096303E0,7.838438165E0,8.056492531E-1,8.095615496E0
8.622508750E0,1.945302574E0,7.412481369E0,2.014364623E0,7.923808868E0
8.632511750E0,2.280639807E0,5.184423233E0,2.483180341E0,6.184314578E0
8.642515750E0,1.753610964E0,-3.349399731E0,1.885955089E0,4.224980068E0
8.652518750E0,1.719434866E0,-1.816015841E1,9.132188423E0,2.039962439E1
8.662521750E0,2.232065817E0,-3.530029578E1,1.728890574E1,3.937002999E1
8.672524750E0,-3.184284374E-1,-5.035086047E1,1.270333094E1,5.192961741E1
8.682527750E0,-9.617984162E-1,-6.115562154E1,1.531321109E1,6.305100742E1
8.692530750E0,-3.857066835E-1,-5.125057388E1,7.784312244E0,5.183980720E1
8.702533750E0,-1.472299665E0,-2.483307342E1,-5.638823810E0,2.550775442E1
8.712536750E0,-3.482809219E0,-1.113980185E1,-1.306583493E1,1.751973709E1
8.722539750E0,-6.426551932E0,-6.125202225E0,-1.950539457E1,2.143079769E1
8.732542750E0,-7.661413127E0,-6.318812306E0,-2.185678452E1,2.400715872E1
8.742545750E0,-7.716792691E0,-1.192644999E1,-1.632395962E1,2.163933355E1
8.752548750E0,-6.647275552E0,-1.684550787E1,-7.922766709E0,1.976683181E1
8.762551750E0,-5.597994457E0,-1.905765456E1,-2.451347514E0,2.001351653E1
8.772554750E0,-4.817760127E0,-2.029245319E1,1.574838193E0,2.091589311E1
8.782557750E0,-3.073905242E0,-1.948692205E1,3.707430008E0,2.007321752E1
8.792560750E0,-1.570182640E0,-1.673104511E1,4.015486472E0,1.727765828E1
8.802563750E0,-8.774833207E-1,-1.394317455E1,3.172726110E0,1.432648891E1
8.812566750E0,-2.840735239E-1,-1.200325551E1,2.145494281E0,1.219680230E1
8.822569750E0,3.386557471E-1,-1.052535538E1,1.497787094E0,1.063678334E1
8.832572750E0,9.993573482E-1,-9.090970815E0,1.120575026E0,9.214127949E0
8.842576750E0,1.525846420E0,-7.471054682E0,8.654148138E-1,7.674230135E0
8.852579750E0,1.928323283E0,-5.596311629E0,7.770832658E-1,5.970007783E0
8.862582750E0,2.405579603E0,-3.584499900E0,8.942661452E-1,4.408533169E0
8.872585750E0,2.839704375E0,-1.556163940E0,1.510360361E0,3.573059692E0
8.882588750E0,3.000826156E0,4.229086429E-1,2.033627105E0,3.649581968E0
8.892591750E0,3.108896735E0,1.952979383E0,1.489109825E0,3.961920677E0
8.902594750E0,3.330904111E0,3.234613041E0,5.282309936E-1,4.672972470E0
8.912597750E0,3.608241350E0,4.599108760E0,9.026577037E-2,5.846311225E0
8.922600750E0,3.878083920E0,6.177665198E0,3.380965340E-1,7.301875886E0
8.932603750E0,3.984175509E0,8.158396636E0,1.236839308E0,9.163125102E0
8.942606750E0,3.740992149E0,9.719798512E0,1.084350940E0,1.047116624E1
8.952609750E0,3.672623872E0,1.061141002E1,3.455884983E-1,1.123430550E1
8.962612750E0,4.065292470E0,1.122597578E1,-5.599282745E-1,1.195251667E1
8.972615750E0,4.640808179E0,1.170140937E1,-1.499574003E0,1.267709762E1
8.982618750E0,5.057829845E0,1.222175777E1,-2.740266625E0,1.350785205E1
8.992621750E0,5.753259083E0,1.304586551E1,-4.626272585E0,1.498989643E1
9.002624750E0,7.078628159E0,1.376255289E1,-6.313053383E0,1.671434957E1
9.012627750E0,8.194906651E0,1.346499159E1,-6.104059278E0,1.690331427E1
9.022630750E0,8.699706134E0,1.248917550E1,-4.869315028E0,1.598044494E1
9.032633750E0,8.945879760E0,1.163601528E1,-3.753854561E0,1.514981981E1
9.042637750E0,8.821483755E0,1.109169798E1,-2.914279763E0,1.446849564E1
9.052640750E0,8.425538378E0,1.069246880E1,-1.787951662E0,1.373008948E1
9.062643750E0,8.151597494E0,1.004908329E1,5.272738409E-1,1.295031407E1
9.072646750E0,7.668303486E0,9.279932944E0,2.878116488E0,1.237754371E1
9.082649750E0,7.215079368E0,8.783748164E0,4.366090200E0,1.217679538E1
9.092652750E0,6.758529355E0,8.578965223E0,5.419987671E0,1.219231847E1
9.102655750E0,6.183523523E0,8.829808436E0,5.777810372E0,1.223047721E1
9.112658750E0,5.535001819E0,9.528246651E0,5.024561527E0,1.211073689E1
9.122661750E0,5.007972976E0,9.922601001E0,4.128846442E0,1.185686202E1
9.132664750E0,4.546828805E0,1.006782245E1,3.338113436E0,1.154026440E1
9.142667750E0,4.141126471E0,1.011303546E1,2.584587432E0,1.122953725E1
9.152670750E0,3.853810082E0,1.005520065E1,1.892177112E0,1.093340050E1
9.162673750E0,3.623464868E0,9.913487531E0,1.227811207E0,1.062611185E1
9.172676750E0,3.388809380E0,9.755118034E0,7.847711849E-1,1.035674769E1
9.182679750E0,3.192480344E0,9.613664532E0,4.501145679E-1,1.013987572E1
9.192682750E0,2.965741693E0,9.499818074E0,3.087458138E-1,9.956781166E0
9.202685750E0,2.798228028E0,9.172164082E0,7.277871448E-1,9.617086262E0
9.212688750E0,3.148267207E0,8.320554544E0,3.622817874E-1,8.903620748E0
9.222691750E0,3.769370148E0,6.715826554E0,-3.499945654E0,8.459320138E0
9.232694750E0,4.021602659E0,4.836023321E0,-7.638467483E0,9.894776147E0
9.242697750E0,3.865687823E0,4.822332065E0,-6.671866018E0,9.094626163E0
9.252700750E0,3.089375221E0,6.157233857E0,-4.924257805E0,8.467826341E0
9.262704750E0,3.128186114E0,7.733052043E0,-2.091181249E0,8.599923330E0
9.272707750E0,3.536338724E0,5.766742178E0,-1.392886875E0,6.906601245E0
9.282710750E0,3.921633398E0,4.877560186E-1,-1.443621411E0,4.207274322E0
9.292713750E0,3.689136994E0,-7.917495444E0,3.559615320E-1,8.742034917E0
9.302716750E0,2.170648710E0,-2.044942520E1,4.982663888E0,2.115933946E1
9.312719750E0,1.097134561E0,-3.525872676E1,1.028629898E1,3.674492432E1
9.322722750E0,7.952275414E-1,-5.115658808E1,2.077024555E1,5.521804045E1
9.332725750E0,2.358039547E-1,-5.411288886E1,1.759607050E1,5.690239047E1
9.342728750E0,-1.566267344E0,-3.490701440E1,2.184713895E0,3.501036735E1
9.352731750E0,-2.211029874E0,-1.782978137E1,-3.023957157E0,1.821905798E1
9.362734750E0,-4.084439178E0,-9.713490536E0,-8.936316054E0,1.381637747E1
9.372737750E0,-6.981663782E0,-7.366619902E0,-1.627991839E1,1.918453702E1
9.382740750E0,-9.977809242E0,-1.056069595E1,-1.989392802E1,2.463439361E1
9.392743750E0,-1.116182831E1,-1.623020303E1,-1.596797645E1,2.535709316E1
9.402746750E0,-9.918794464E0,-1.882986575E1,-8.198957017E0,2.280721868E1
9.412749750E0,-7.808905048E0,-1.858405348E1,-3.715769892E0,2.049763371E1
9.422752750E0,-5.904539416E0,-1.847373874E1,-7.759377962E-1,1.940991211E1
9.432755750E0,-3.887965423E0,-1.857178134E1,1.215665370E0,1.901328956E1
9.442758750E0,-1.910070907E0,-1.829476483E1,2.633816895E0,1.858181321E1
9.452761750E0,-3.622806180E-1,-1.704229474E1,3.878905454E0,1.748190392E1
9.462765750E0,7.094235255E-1,-1.451550587E1,3.737728525E0,1.500579244E1
9.472768500E0,1.359159551E0,-1.166309491E1,2.303469676E0,1.196582927E1
9.482771500E0,1.799544936E0,-9.369842656E0,1.511683586E0,9.660098376E0
9.492774500E0,2.460591377E0,-7.411875597E0,1.502259629E0,7.952810433E0
9.502777500E0,3.056228524E0,-5.300317386E0,1.843686737E0,6.390076523E0
9.512780500E0,3.366024827E0,-3.236652550E0,1.678760172E0,4.962285620E0
9.522783500E0,3.340863966E0,-1.488819804E0,1.019304174E0,3.796964241E0
9.532786500E0,3.271711285E0,1.611141801E-1,5.180820179E-1,3.316392843E0
9.542789500E0,3.325794522E0,1.640553880E0,2.421823168E-1,3.716312488E0
9.552792500E0,3.336343776E0,3.261765171E0,3.416574883E-1,4.678357795E0
9.562795500E0,3.347312275E0,4.884732966E0,7.984261876E-1,5.975165269E0
9.572798500E0,3.441460633E0,6.550970156E0,1.548440353E0,7.560193702E0
9.582801500E0,3.642723843E0,8.041949921E0,2.316496103E0,9.127351737E0
9.592804500E0,3.753178039E0,9.442577341E0,3.033291067E0,1.060421930E1
9.602807500E0,3.823206924E0,1.084857894E1,3.861875439E0,1.213353444E1
9.612810500E0,4.237251481E0,1.156418575E1,3.390351291E0,1.277416040E1
9.622813500E0,4.627718894E0,1.194335195E1,2.241611397E0,1.300324035E1
9.632816500E0,5.000393815E0,1.267995611E1,-5.762196771E-1,1.364247978E1
9.642819500E0,6.237484553E0,1.347114286E1,-3.656702489E0,1.528886447E1
9.652822500E0,7.675852241E0,1.333939691E1,-4.983138682E0,1.617683185E1
9.662825500E0,8.285213973E0,1.285464519E1,-4.746903568E0,1.601311235E1
9.672829500E0,8.263583368E0,1.243611202E1,-4.143842211E0,1.549564844E1
9.682832500E0,8.034006479E0,1.233857345E1,-3.503314819E0,1.513469093E1
9.692835500E0,7.632405090E0,1.205182248E1,-2.769015630E0,1.453160281E1
9.702838500E0,7.813930146E0,1.186782698E1,-1.076008133E0,1.424993386E1
9.712841500E0,7.880356854E0,1.163302619E1,9.610530424E-1,1.408371206E1
9.722844500E0,7.265788761E0,1.121205239E1,2.630110345E0,1.361687503E1
9.732847500E0,6.490691210E0,1.085334208E1,3.292288806E0,1.306764218E1
9.742850500E0,5.755126684E0,1.071494550E1,3.413978720E0,1.263276656E1
9.752853500E0,4.986832952E0,1.064053383E1,3.286375517E0,1.220203783E1
9.762856500E0,4.284707191E0,1.050944744E1,3.128681958E0,1.177267396E1
9.772859500E0,3.730949556E0,1.045751598E1,2.907890511E0,1.147760656E1
9.782862500E0,3.275200319E0,1.037854583E1,2.679626906E0,1.120810202E1
9.792865500E0,2.880395733E0,1.020956480E1,2.290229825E0,1.085251334E1
9.802868500E0,2.520778522E0,1.004718178E1,1.818806834E0,1.051704542E1
9.812871500E0,2.170110620E0,9.964990976E0,1.385052191E0,1.029217153E1
9.822874500E0,1.965132821E0,9.934739821E0,1.097935776E0,1.018657279E1
9.832877500E0,2.314670017E0,9.963704588E0,1.033528111E0,1.028111311E1
9.842880500E0,3.166440353E0,1.002021208E1,1.063950005E0,1.056233801E1
9.852883500E0,3.813055281E0,9.927664690E0,1.079249244E0,1.068937303E1
9.862886500E0,4.084865440E0,9.644076485E0,9.866322720E-1,1.051987548E1
9.872890500E0,4.230177227E0,8.796581048E0,1.148972028E-1,9.761528511E0
9.882893500E0,4.571518673E0,6.108479773E0,-5.339492562E0,9.312491017E0
9.892896500E0,4.950978411E0,4.843886656E0,-7.220526050E0,1.000556953E1
9.902899500E0,4.461820230E0,4.773728254E0,-5.523410883E0,8.555956346E0
9.912902500E0,3.051429715E0,6.007732832E0,-3.767772689E0,7.720115810E0
9.922905500E0,2.739143083E0,7.547539186E0,-1.264689596E0,8.128203514E0
9.932908500E0,2.778351880E0,6.114647416E0,-2.048040638E-1,6.719382181E0
9.942911500E0,3.078159091E0,-4.015113419E-1,7.333512090E-2,3.105101092E0
9.952914500E0,2.594808657E0,-1.055850792E1,1.718397278E0,1.100763420E1
9.962917500E0,7.942082986E-1,-2.204475613E1,5.660911667E0,2.277384378E1
9.972920500E0,-4.642937369E-1,-3.304420609E1,1.345111147E1,3.568007182E1
9.982923500E0,-1.494642022E0,-3.866871066E1,1.690296729E1,4.222811199E1
9.992926500E0,-5.445068718E0,-3.588247498E1,7.151548786E0,3.699115345E1
1.000292950E1,-6.653855424E0,-3.290614866E1,-3.931106472E-1,3.357443890E1
1.001293250E1,-3.905716692E0,-2.644257332E1,-5.288046420E0,2.724752726E1
1.002293550E1,-9.390141557E-1,-1.733671608E1,-6.109707103E0,1.840575978E1
1.003293850E1,5.514172136E-1,-1.303037858E1,-5.282354155E0,1.407117949E1
1.004294150E1,1.941646602E0,-1.353559321E1,-4.950537531E0,1.454269910E1
1.005294450E1,8.722651193E-1,-1.416107689E1,-7.146954628E0,1.588634337E1
1.006294750E1,-2.386002540E0,-1.431149300E1,-7.973743320E0,1.655573685E1
1.007295050E1,-4.945165694E0,-1.553435045E1,-5.701836330E0,1.727083221E1
1.008295450E1,-5.923245243E0,-1.664700425E1,-2.931236688E0,1.791088310E1
1.009295750E1,-5.922259403E0,-1.737392542E1,-1.052947737E0,1.838573197E1
1.010296050E1,-5.259701457E0,-1.764735409E1,1.745469886E-1,1.841532059E1
1.011296350E1,-3.636102456E0,-1.677833272E1,7.425753379E-1,1.718386184E1
1.012296650E1,-1.994367730E0,-1.513923888E1,1.031464629E0,1.530483505E1
1.013296950E1,-6.334272636E-1,-1.351626583E1,1.012139654E0,1.356890190E1
1.014297250E1,3.513156999E-1,-1.188956459E1,6.235312897E-1,1.191108559E1
1.015297550E1,1.219462918E0,-1.003289352E1,6.384329188E-1,1.012687705E1
1.016297850E1,2.019627994E0,-8.116147580E0,9.379898697E-1,8.416090171E0
1.017298150E1,2.757129118E0,-6.079433144E0,1.416603182E0,6.824077440E0
1.018298450E1,3.393337464E0,-4.025103387E0,1.703488632E0,5.533359733E0
1.019298750E1,3.798181134E0,-1.952616856E0,2.174474251E0,4.792413878E0
1.020299050E1,3.846592571E0,2.901289004E-1,2.986206363E0,4.878306840E0
1.021299350E1,3.724096912E0,2.205889587E0,2.410330465E0,4.954244607E0
1.022299650E1,3.872786343E0,3.715583950E0,8.205777794E-1,5.429308063E0
1.023299950E1,4.004593986E0,5.132361964E0,-2.486914372E-1,6.514580551E0
1.024300250E1,4.064621794E0,6.760199320E0,-4.227829643E-1,7.899379128E0
1.025300550E1,3.945122248E0,8.457364773E0,-4.861924732E-1,9.344912604E0
1.026300850E1,3.776574210E0,9.725336995E0,-6.407612801E-1,1.045252445E1
1.027301150E1,3.579714539E0,1.043923759E1,-7.528401981E-1,1.106159147E1
1.028301450E1,3.601769067E0,1.084523550E1,-5.480753106E-1,1.144081553E1
1.029301750E1,3.757938549E0,1.122617575E1,-2.922496855E-1,1.184206629E1
1.030302150E1,3.962700440E0,1.178046022E1,-2.165001762E-1,1.243097382E1
1.031302450E1,4.187929047E0,1.223986660E1,-2.750700178E-1,1.293942609E1
1.032302750E1,4.612791830E0,1.245286663E1,-6.826723677E-1,1.329728459E1
1.033303050E1,5.376394340E0,1.252926635E1,-1.211747736E0,1.368782174E1
1.034303350E1,5.851199945E0,1.229501637E1,-1.523648159E0,1.370129454E1
1.035303650E1,6.060283513E0,1.211914849E1,-1.450705898E0,1.362737480E1
1.036303950E1,6.177855817E0,1.208020487E1,-9.980495453E-1,1.360490187E1
1.037304250E1,6.257584941E0,1.213776135E1,-2.957732177E-1,1.365906665E1
1.038304550E1,6.315188202E0,1.209400663E1,7.925690317E-1,1.366655641E1
1.039304850E1,6.184143913E0,1.183134620E1,2.018706765E0,1.350183565E1
1.040305150E1,5.785723409E0,1.126563627E1,2.842301123E0,1.297951585E1
1.041305450E1,5.232375079E0,1.051362586E1,2.960799626E0,1.211116890E1
1.042305750E1,4.676034437E0,9.837100675E0,2.761692578E0,1.123658283E1
1.043306050E1,4.259533758E0,9.599186241E0,2.542438363E0,1.080518381E1
1.044306350E1,4.015419813E0,9.907071966E0,2.307006072E0,1.093599324E1
1.045306650E1,3.907145167E0,1.037548890E1,1.928005925E0,1.125316667E1
1.046306950E1,3.730528849E0,1.058546943E1,1.713844635E0,1.135368980E1
1.047307200E1,3.520228183E0,1.050721381E1,1.515895336E0,1.118443057E1
1.048307500E1,3.315491143E0,1.019408956E1,1.259606026E0,1.079344944E1
1.049307800E1,3.233254148E0,9.916150353E0,1.006394691E0,1.047839685E1
1.050308100E1,3.215021360E0,9.642953235E0,7.751045680E-1,1.019429726E1
1.051308400E1,3.233177842E0,9.427999063E0,7.544025010E-1,9.995485402E0
1.052308800E1,3.317669231E0,9.298338225E0,8.630332428E-1,9.910138710E0
1.053309100E1,3.615093994E0,9.311879792E0,9.677808487E-1,1.003576652E1
1.054309400E1,4.002911450E0,9.217425039E0,7.074750870E-1,1.007396374E1
1.055309700E1,4.450371382E0,9.007303006E0,7.858833253E-2,1.004706370E1
1.056310000E1,5.021596988E0,7.909668362E0,-1.852990242E0,9.550542536E0
1.057310300E1,5.641792442E0,6.321457586E0,-3.927999846E0,9.339155784E0
1.058310600E1,4.217351067E0,6.060496936E0,-4.305125375E0,8.546916265E0
1.059310900E1,2.372974944E0,6.437938215E0,-4.051084905E0,7.968020297E0
1.060311200E1,1.698878395E0,7.681042814E0,-2.041515584E0,8.127262294E0
1.061311500E1,1.878319941E0,7.911403815E0,8.865135413E-2,8.131805162E0
1.062311800E1,2.329119657E0,4.493902148E0,3.067489531E-1,5.070902268E0
1.063312100E1,2.888837943E0,-4.028019394E0,3.399365066E-1,4.968488877E0
1.064312400E1,2.559697589E0,-1.843972081E1,4.695348083E0,1.919952210E1
1.065312700E1,1.671740736E0,-3.898433167E1,1.099581767E1,4.053986728E1
1.066313000E1,-2.328897389E-1,-5.817697972E1,1.604413761E1,6.034922998E1
1.067313300E1,1.529989903E0,-6.467969164E1,2.792183001E1,7.046582129E1
1.068313600E1,-1.112000815E-1,-4.343887620E1,7.341809582E0,4.405508483E1
1.069313900E1,-3.165362712E0,-2.309719414E1,-7.634545171E0,2.453133054E1
1.070314200E1,-4.801441718E0,-1.252527153E1,-1.495518959E1,2.008964821E1
1.071314500E1,-8.016978802E0,-6.592678345E0,-2.525165220E1,2.730167203E1
1.072314800E1,-9.941545980E0,-8.034856664E0,-2.918480754E1,3.186135981E1
1.073315100E1,-9.074568790E0,-1.656278563E1,-2.201068558E1,2.900248172E1
1.074315400E1,-6.051993915E0,-2.155492786E1,-1.149467171E1,2.516682386E1
1.075315800E1,-2.878174376E0,-2.283534179E1,-4.488475347E0,2.344958706E1
1.076316100E1,-3.392533325E-1,-2.262643714E1,-3.536059812E-2,2.262900796E1
1.077316400E1,3.261611243E-1,-2.093789692E1,2.532333205E0,2.109299931E1
1.078316700E1,-3.154442653E-2,-1.826396520E1,3.554423577E0,1.860664792E1
1.079317000E1,1.635554292E-1,-1.567397143E1,3.613985070E0,1.608605045E1
1.080317300E1,6.926450863E-1,-1.402856261E1,3.116335562E0,1.438721215E1
1.081317600E1,1.058622533E0,-1.262766330E1,2.647170181E0,1.294550393E1
1.082317900E1,1.530183007E0,-1.087138191E1,2.442064474E0,1.124686994E1
1.083318200E1,1.792149378E0,-8.791730783E0,2.654265193E0,9.356893356E0
1.084318500E1,1.968622293E0,-6.506439516E0,2.956807147E0,7.412957400E0
1.085318800E1,2.183868242E0,-4.232836248E0,2.870842552E0,5.561287635E0
1.086319100E1,2.708854506E0,-1.813026277E0,2.817641076E0,4.308602818E0
1.087319400E1,2.887125878E0,5.855331588E-1,3.258089612E0,4.392435866E0
1.088319700E1,3.201512538E0,2.763649641E0,4.228316935E0,5.980477069E0
1.089320000E1,3.385093474E0,4.678353150E0,4.497560166E0,7.319418930E0
1.090320300E1,2.962173429E0,6.300244473E0,4.234042529E0,8.148292335E0
1.091320600E1,2.785869353E0,7.846713730E0,4.776475861E0,9.599307582E0
1.092320900E1,3.538262458E0,9.477706828E0,5.542035434E0,1.153518031E1
1.093321200E1,4.202460548E0,1.056502055E1,5.209963871E0,1.250696036E1
1.094321500E1,4.250365908E0,1.085277841E1,3.653293562E0,1.221453901E1
1.095321800E1,3.983762695E0,1.080884360E1,2.072484777E0,1.170455716E1
1.096322100E1,3.954851722E0,1.188252103E1,6.675105375E-1,1.254116137E1
1.097322400E1,4.734665638E0,1.376910996E1,-4.315482548E0,1.518646889E1
1.098322800E1,9.408574027E0,1.686191048E1,-1.280757277E1,2.317065408E1
1.099323100E1,9.339376323E0,1.446027891E1,-6.767768540E0,1.849665665E1
1.100323400E1,7.561598232E0,1.327858470E1,-4.301562082E0,1.587457136E1
1.101323700E1,5.652021561E0,1.251947109E1,-2.710833496E0,1.400111147E1
1.102324000E1,4.505828129E0,1.164633679E1,-2.025369667E0,1.265076164E1
1.103324300E1,4.156167849E0,1.143684742E1,-2.079706088E0,1.234505519E1
1.104324600E1,4.349241448E0,1.157416110E1,-1.246961423E0,1.242706800E1
1.105324900E1,4.345951512E0,1.157249113E1,1.966868860E-1,1.236319260E1
1.106325200E1,4.224586412E0,1.151388566E1,1.290200413E0,1.233212514E1
1.107325500E1,4.073383555E0,1.149874605E1,2.207902783E0,1.239711454E1
1.108325800E1,3.736024647E0,1.148152951E1,2.782307521E0,1.239050584E1
1.109326100E1,3.242925150E0,1.140169864E1,3.019112154E0,1.223234784E1
1.110326400E1,2.738646947E0,1.125780451E1,3.054330518E0,1.198195662E1
1.111326700E1,2.278246249E0,1.114004743E1,2.994371415E0,1.175828742E1
1.112327000E1,1.924833811E0,1.100361318E1,2.592906266E0,1.146767854E1
1.113327300E1,1.671157915E0,1.088925918E1,1.971171241E0,1.119170454E1
1.114327600E1,1.451039628E0,1.064763820E1,1.355337226E0,1.083118896E1
1.115327900E1,1.330454838E0,1.043974980E1,1.037235830E0,1.057517585E1
1.116328200E1,1.248583002E0,1.032295986E1,1.061435702E0,1.045222969E1
1.117328500E1,1.330183381E0,1.026051393E1,1.033566703E0,1.039787450E1
1.118328800E1,2.047027608E0,1.035124869E1,5.183504051E-1,1.056443839E1
1.119329100E1,3.617947436E0,1.059786670E1,-1.196392947E-1,1.119904620E1
1.120329400E1,3.602687372E0,1.042380562E1,1.406033170E-1,1.102972570E1
1.121329800E1,2.843854144E0,9.629009380E0,-3.075799155E-1,1.004489589E1
1.122330100E1,1.830575525E0,7.845646028E0,-4.106562703E0,9.042622716E0
1.123330400E1,8.620091030E-1,6.698622876E0,-4.865861077E0,8.324134319E0
1.124330700E1,1.058913944E0,7.138493707E0,-4.064776161E0,8.282620140E0
1.125331000E1,1.263722028E0,7.481330579E0,-2.644253590E0,8.034885042E0
1.126331300E1,1.087981330E0,8.235740097E0,8.211367732E-1,8.347777184E0
1.127331600E1,1.395971135E0,8.266164914E0,1.439961054E0,8.505980580E0
1.128331900E1,1.941707560E0,6.971177970E0,1.671766317E0,7.427136269E0
1.129332200E1,2.521086963E0,4.880411289E0,2.228434696E0,5.927918270E0
1.130332500E1,2.852374414E0,-2.809673075E0,2.282557694E0,4.608727830E0
1.131332800E1,3.448918757E0,-1.497811535E1,3.433959825E0,1.574900188E1
1.132333100E1,2.927098906E0,-3.374221863E1,5.438244433E0,3.430276561E1
1.133333400E1,-6.257200487E-2,-5.558554520E1,7.088343308E0,5.603571505E1
1.134333700E1,-3.417858055E0,-6.328404078E1,3.132893708E0,6.345365706E1
1.135334000E1,-4.525104060E0,-5.081121878E1,-2.617662792E0,5.107943499E1
1.136334300E1,-2.052379711E0,-2.840800494E1,-5.608747487E0,2.902903814E1
1.137334600E1,-1.005847538E0,-1.523725693E1,-5.293091397E0,1.616176180E1
1.138334900E1,-4.032698189E-1,-9.830142488E0,-3.972411788E0,1.061010760E1
1.139335200E1,7.058078997E-1,-7.334923900E0,-2.823307028E0,7.891155555E0
1.140335500E1,3.064913979E0,-9.592664257E0,-7.165330088E-1,1.009585681E1
1.141335800E1,4.915808578E0,-1.597326234E1,4.544063511E-1,1.671875500E1
1.142336100E1,2.731092344E0,-2.022241992E1,-1.674502814E0,2.047459627E1
1.143336400E1,-8.815188497E-1,-2.166145477E1,-4.219723282E0,2.208623469E1
1.144336700E1,-3.305311725E0,-2.016124869E1,-4.567595776E0,2.093475496E1
1.145337100E1,-3.746008183E0,-1.657260896E1,-3.579120462E0,1.736358397E1
1.146337400E1,-2.614471674E0,-1.400010655E1,-2.770830022E0,1.450916760E1
1.147337767E1,-1.250876572E0,-1.269468642E1,-1.610446567E0,1.285742173E1
1.148338067E1,3.531979917E-1,-1.090255809E1,-5.309434804E-1,1.092119145E1
1.149338367E1,1.655493078E0,-8.983359827E0,4.740863979E-1,9.146921287E0
1.150338667E1,2.331476377E0,-7.126756006E0,9.715043557E-1,7.561101374E0
1.151338967E1,2.635814888E0,-5.037161107E0,1.678596450E0,5.927748155E0
1.152339267E1,3.035315373E0,-2.548337034E0,2.275348077E0,4.569942004E0
1.153339567E1,3.283766782E0,-1.620164055E-1,2.622415409E0,4.205524482E0
1.154339867E1,3.514157896E0,2.097169383E0,2.839743551E0,4.981121216E0
1.155340167E1,3.890101118E0,4.388341194E0,3.318596014E0,6.738212274E0
1.156340467E1,3.714625884E0,6.283299826E0,2.920649135E0,7.861837796E0
1.157340767E1,3.381153913E0,7.798950748E0,2.481390508E0,8.855119051E0
1.158341067E1,3.517097584E0,9.325343006E0,2.356956496E0,1.024144724E1
1.159341367E1,3.803682779E0,1.047816484E1,1.899245226E0,1.130783240E1
1.160341667E1,3.693181513E0,1.179765103E1,1.112224178E0,1.241213931E1
1.161341967E1,2.614574293E0,1.432858675E1,-4.154168394E0,1.514600647E1
1.162342267E1,3.743996741E0,1.640544759E1,-9.936381719E0,1.954195240E1
1.163342567E1,5.212309774E0,1.386243035E1,-4.680507265E0,1.553197658E1
1.164342867E1,4.665657676E0,1.214310804E1,-2.870999258E0,1.332163921E1
1.165343167E1,4.384005776E0,1.162754968E1,-1.800357261E0,1.255630139E1
1.166343467E1,4.475275258E0,1.137206027E1,-8.733220035E-1,1.225212369E1
1.167343767E1,4.573699685E0,1.126207649E1,-2.899804177E-1,1.215883153E1
1.168344067E1,4.745140048E0,1.123272580E1,3.083149105E-1,1.219776787E1
1.169344467E1,4.985752387E0,1.118265726E1,5.459790838E-1,1.225592279E1
1.170344767E1,5.214328233E0,1.126035506E1,-1.071913401E-2,1.240906644E1
1.171345067E1,5.095509303E0,1.132369912E1,5.575612485E-1,1.242985323E1
1.172345367E1,4.725261853E0,1.124142646E1,1.097150495E0,1.224342712E1
1.173345667E1,4.303170944E0,1.111945237E1,1.230775745E0,1.198642191E1
1.174345967E1,3.763625259E0,1.087878799E1,1.372880627E0,1.159300239E1
1.175346267E1,3.178417205E0,1.062005805E1,1.494012131E0,1.118570701E1
1.176346567E1,2.605844108E0,1.037631804E1,1.368247293E0,1.078566179E1
1.177346867E1,2.090839625E0,1.016447926E1,1.110676274E0,1.043656317E1
1.178347167E1,1.673295949E0,1.001921338E1,9.024025458E-1,1.019798443E1
1.179347467E1,1.338416261E0,9.966576741E0,6.617668176E-1,1.007779467E1
1.180347767E1,1.042919324E0,9.948941538E0,2.712681216E-1,1.000713270E1
1.181348067E1,7.822282308E-1,9.944654360E0,7.836613834E-2,9.975679054E0
1.182348367E1,7.142954987E-1,1.001676105E1,-2.519389808E-2,1.004222858E1
1.183348667E1,9.557298835E-1,1.016845537E1,1.543501210E-1,1.021443724E1
1.184348967E1,1.265961950E0,1.029381967E1,5.308354165E-1,1.038494917E1
1.185349267E1,1.378381395E0,1.027028112E1,9.668084568E-1,1.040736894E1
1.186349567E1,1.391921208E0,1.026225056E1,1.225403323E0,1.042846319E1
1.187349867E1,1.505653353E0,1.029957099E1,1.339449171E0,1.049486916E1
1.188350167E1,1.626487526E0,1.019547418E1,1.452267689E0,1.042603649E1
1.189350467E1,1.665512136E0,9.973071828E0,1.501476102E0,1.022206060E1
1.190350767E1,2.001291126E0,9.710778013E0,1.066189488E0,9.972017640E0
1.191351067E1,3.266358159E0,8.325023571E0,-2.725360318E0,9.348941221E0
1.192351367E1,4.462757539E0,4.145161927E0,-9.749719884E0,1.149589536E1
1.193351667E1,2.361896809E0,2.105121596E0,-6.084443039E0,6.857881638E0
1.194351967E1,1.075275623E0,5.154024729E0,-2.698033941E0,5.916043924E0
1.195352367E1,1.446834164E0,5.176586210E0,-2.706931064E0,6.018126758E0
1.196352667E1,8.760003206E-1,4.315746258E0,3.454675341E-1,4.417283118E0
1.197352967E1,5.736720818E-1,-7.483091176E-1,1.311286057E0,1.615096690E0
1.198353267E1,-1.056255654E-1,-1.280559875E1,2.175869397E0,1.298956980E1
1.199353567E1,-1.689646080E0,-2.984293037E1,3.128335218E0,3.005398273E1
1.200353867E1,-2.666028329E0,-5.277932140E1,1.048929794E1,5.387754491E1
1.201354167E1,-6.329230875E-1,-6.459807854E1,1.447599974E1,6.620322433E1
1.202354467E1,4.693466449E0,-4.411557681E1,4.913227032E0,4.463577651E1
1.203354767E1,2.876256782E0,-1.686488086E1,-2.110983430E0,1.723813536E1
1.204355067E1,-7.182867350E-1,-5.939837887E0,-3.969181201E0,7.179972797E0
1.205355367E1,-2.413523484E0,-3.897175080E-1,-7.048302160E0,7.460263982E0
1.206355667E1,-3.449681234E0,1.514514223E0,-9.660272688E0,1.036894027E1
1.207355967E1,-3.365626924E0,-9.642561471E-1,-8.850178381E0,9.517504499E0
1.208356267E1,-2.533304427E0,-8.112801218E0,-5.621413141E0,1.018996863E1
1.209356567E1,-8.986788927E-1,-1.699538838E1,-1.820116611E0,1.711618165E1
1.210356867E1,3.089326689E0,-2.554334640E1,2.400558014E0,2.584122991E1
1.211357167E1,5.647537331E0,-2.710889863E1,2.544129962E0,2.780754682E1
1.212357467E1,3.194481553E0,-1.866267280E1,-2.299464333E0,1.907321695E1
1.213357767E1,4.706390988E-1,-1.278424004E1,-4.235976788E0,1.347597098E1
1.214358067E1,-1.220725112E0,-1.145835348E1,-4.046060393E0,1.221288823E1
1.215358367E1,-2.722792806E0,-1.121031927E1,-3.754177912E0,1.213172332E1
1.216358667E1,-3.349516675E0,-1.065683821E1,-2.936181679E0,1.155026517E1
1.217359067E1,-2.350474565E0,-1.011347517E1,-1.829024844E0,1.054288588E1
1.218359367E1,-1.043238363E0,-9.625329142E0,-3.328053886E-1,9.687417964E0
1.219359667E1,3.704196498E-2,-8.822663139E0,1.378512080E0,8.929784573E0
1.220359967E1,1.048997432E0,-7.294364689E0,3.009423902E0,7.960200001E0
1.221360267E1,1.938364414E0,-5.638458359E0,4.183130822E0,7.283409418E0
1.222360567E1,2.766299599E0,-3.909035572E0,4.143642236E0,6.332672702E0
1.223360867E1,3.075389850E0,-2.008472384E0,3.764359084E0,5.259504099E0
1.224361167E1,3.260095206E0,-2.793758708E-1,2.996322631E0,4.436690314E0
1.225361467E1,3.736439214E0,1.285346639E0,2.413566899E0,4.630161894E0
1.226361767E1,4.142438294E0,2.990092422E0,2.080351036E0,5.516186015E0
1.227362067E1,4.542026195E0,4.683241423E0,1.841975257E0,6.779057827E0
1.228362367E1,4.644966719E0,6.248266234E0,1.908186203E0,8.016091400E0
1.229362667E1,4.599417786E0,7.682280085E0,2.267011117E0,9.236417632E0
1.230362967E1,4.874999398E0,9.459518479E0,2.924796565E0,1.103641898E1
1.231363267E1,4.782878562E0,1.130009274E1,3.135188740E0,1.266481077E1
1.232363567E1,3.492394559E0,1.278413946E1,2.148293782E0,1.342558035E1
1.233363867E1,2.535692430E0,1.439656999E1,-5.817922271E0,1.573337800E1
1.234364167E1,6.282627397E0,1.491336562E1,-1.211275982E1,2.021382774E1
1.235364467E1,8.508359510E0,1.464623090E1,-1.187725269E1,2.068751779E1
1.236364767E1,8.311141112E0,1.285769042E1,-8.984894722E0,1.775172112E1
1.237365067E1,7.415341242E0,1.117071257E1,-6.792961854E0,1.503051682E1
1.238365367E1,6.258733335E0,1.039216516E1,-5.796463575E0,1.344499274E1
1.239365767E1,5.827142161E0,9.972949036E0,-3.344474037E0,1.202500748E1
1.240366067E1,5.807324778E0,9.548813063E0,-4.380429912E-1,1.118466511E1
1.241366367E1,5.834240096E0,9.157672343E0,1.956401174E0,1.103307871E1
1.242366667E1,5.351905031E0,8.835584316E0,3.621041490E0,1.094634090E1
1.243366967E1,4.628494527E0,8.727473391E0,4.558492831E0,1.087987179E1
1.244367267E1,3.961951996E0,8.755347653E0,5.026383519E0,1.084516977E1
1.245367567E1,3.404527280E0,8.800984002E0,5.158500187E0,1.075445255E1
1.246367867E1,3.015589791E0,8.985542008E0,5.002249721E0,1.071710079E1
1.247368187E1,2.685263914E0,9.273515625E0,4.419326760E0,1.061787094E1
1.248368487E1,2.415891021E0,9.465602506E0,3.605299616E0,1.041308530E1
1.249368787E1,2.195471456E0,9.603438336E0,3.108508480E0,1.033000231E1
1.250369087E1,2.044652030E0,9.687755186E0,2.717343786E0,1.026728590E1
1.251369387E1,1.868011592E0,9.626688035E0,2.209345876E0,1.005205447E1
1.252369687E1,1.681630132E0,9.537133834E0,1.765433450E0,9.843858844E0
1.253369987E1,1.521478111E0,9.434013509E0,1.345405730E0,9.650161817E0
1.254370288E1,1.378752986E0,9.392104175E0,1.010767239E0,9.546425040E0
1.255370588E1,1.309823669E0,9.406108841E0,7.322994411E-1,9.525060842E0
1.256370888E1,1.308462144E0,9.426948903E0,5.049889326E-1,9.530711024E0
1.257371187E1,2.125228855E0,9.333034433E0,6.331634080E-1,9.592863249E0
1.258371487E1,3.857737364E0,9.238871457E0,-7.728615761E-2,1.001223534E1
1.259371787E1,4.650199684E0,9.137985937E0,-1.762872954E0,1.040359866E1
1.260372087E1,5.570718366E0,8.085861926E0,-4.303830217E0,1.072086847E1
1.261372488E1,4.657090043E0,5.701029999E0,-6.463577671E0,9.796329263E0
1.262372788E1,2.392037744E0,4.260669580E0,-5.304518611E0,7.212008564E0
1.263373088E1,1.828375949E0,4.122336152E0,-3.776436508E0,5.882013827E0
1.264373387E1,2.145363303E0,9.212276566E-1,-3.397670251E0,4.122548633E0
1.265373687E1,2.034220452E0,-5.826485519E0,-2.137657843E0,6.531122981E0
1.266373987E1,1.137181995E0,-1.641281157E1,2.369315171E-1,1.645386590E1
1.267374287E1,9.416834097E-1,-3.070973799E1,7.458785470E0,3.161658197E1
1.268374587E1,1.677395432E0,-4.086950206E1,1.389971337E1,4.320106348E1
1.269374887E1,3.209514160E0,-3.715286444E1,1.119098604E1,3.893423283E1
1.270375188E1,6.359645752E0,-2.219906181E1,9.444056101E0,2.494861990E1
1.271375488E1,8.332433163E0,-1.295249133E1,4.715851929E0,1.610700883E1
1.272375788E1,4.911325518E0,-1.024679870E1,-6.694490064E0,1.318841155E1
1.273376088E1,-2.527058724E0,-1.376370245E1,-1.764736345E1,2.252232154E1
1.274376387E1,-8.092448815E0,-1.788272440E1,-1.997126797E1,2.800234105E1
1.275376687E1,-9.134471760E0,-1.852710160E1,-1.278318637E1,2.429201354E1
1.276376987E1,-8.936581517E0,-1.748790871E1,-4.933054356E0,2.024906085E1
1.277377287E1,-8.003379933E0,-1.563338825E1,-2.922368217E-1,1.756537278E1
1.278377587E1,-6.877065865E0,-1.353295027E1,2.599414802E0,1.540103033E1
1.279377887E1,-5.954024987E0,-1.258088557E1,5.934383605E0,1.513096177E1
1.280378188E1,-5.185920120E0,-1.350160218E1,7.875173882E0,1.646831481E1
1.281378587E1,-4.288859006E0,-1.585212206E1,6.070231966E0,1.750804962E1
1.282378887E1,-3.751559822E0,-1.771336916E1,3.643847970E0,1.846930632E1
1.283379187E1,-3.262104017E0,-1.805952315E1,2.332526829E0,1.849941568E1
1.284379487E1,-2.215276122E0,-1.580993791E1,1.182718649E0,1.600813569E1
1.285379787E1,-8.028952146E-1,-1.228892240E1,1.729607304E-2,1.231513514E1
1.286380087E1,4.049309398E-1,-9.105221649E0,-6.988615537E-1,9.140975758E0
1.287380388E1,1.332069693E0,-6.407100000E0,-5.976637924E-1,6.571342487E0
1.288380688E1,1.902071039E0,-4.186209381E0,-7.014027536E-2,4.598602274E0
1.289380988E1,2.381583799E0,-2.197864283E0,3.322399628E-1,3.257749560E0
1.290381287E1,2.735087746E0,-2.693034571E-1,6.081232917E-1,2.814790093E0
1.291381587E1,2.958020737E0,1.450398334E0,5.159162458E-1,3.334623154E0
1.292381887E1,3.250691714E0,2.901460912E0,-2.296721989E-1,4.363281032E0
1.293382187E1,3.573983683E0,4.039701546E0,-1.160306198E0,5.517142233E0
1.294382487E1,3.881409232E0,5.201126390E0,-1.606797320E0,6.685719929E0
1.295382787E1,4.092450740E0,6.692126620E0,-1.371449229E0,7.963264704E0
1.296383087E1,4.282876135E0,8.257115763E0,-8.869881159E-1,9.343967927E0
1.297383388E1,4.397418120E0,9.813714151E0,-5.128511719E-1,1.076611759E1
1.298383688E1,4.127870249E0,1.067329578E1,-5.804607723E-1,1.145842443E1
1.299383988E1,4.173896022E0,1.125479202E1,-5.777353120E-1,1.201771732E1
1.300384287E1,4.504471867E0,1.161184991E1,-6.712604300E-1,1.247300748E1
1.301384587E1,4.871230283E0,1.180368536E1,-1.427280782E0,1.284885220E1
1.302384987E1,5.441321822E0,1.215693437E1,-2.704755315E0,1.359098001E1
1.303385287E1,6.783126252E0,1.276687147E1,-4.541730618E0,1.515358459E1
1.304385588E1,8.416622543E0,1.292248926E1,-5.588045420E0,1.640294228E1
1.305385888E1,8.939900397E0,1.213157733E1,-5.285732092E0,1.596984507E1
1.306386188E1,8.902528503E0,1.123683990E1,-4.460460168E0,1.501390321E1
1.307386487E1,8.579300269E0,1.071308024E1,-3.554802477E0,1.417783841E1
1.308386787E1,7.948379853E0,1.044201618E1,-2.380027855E0,1.333705278E1
1.309387087E1,7.322243044E0,1.014652129E1,-4.737770802E-1,1.252164535E1
1.310387387E1,6.781867347E0,9.697362161E0,1.574859243E0,1.193786996E1
1.311387687E1,6.266862134E0,9.189246722E0,3.067003189E0,1.153786483E1
1.312387987E1,5.736133173E0,8.737391438E0,3.859718401E0,1.114193247E1
1.313388288E1,5.244988693E0,8.606476373E0,4.121904627E0,1.088905137E1
1.314388588E1,4.751457379E0,8.948409265E0,4.158810498E0,1.095198979E1
1.315388888E1,4.264545114E0,9.145663331E0,3.992485279E0,1.085216299E1
1.316389187E1,3.861712594E0,9.211139283E0,3.439921061E0,1.056366262E1
1.317389487E1,3.536893040E0,9.195341275E0,2.685571185E0,1.021157217E1
1.318389787E1,3.231752583E0,9.135279261E0,1.936256931E0,9.881631588E0
1.319390087E1,3.037223612E0,9.158386288E0,1.221192743E0,9.725845895E0
1.320390387E1,2.825728360E0,9.112241231E0,6.305292374E-1,9.561132158E0
1.321390687E1,2.712542929E0,9.089447030E0,2.434792292E-1,9.488688982E0
1.322390987E1,2.652839934E0,9.066837017E0,4.772846421E-2,9.447082683E0
1.323391288E1,3.006951115E0,8.900427598E0,1.558095678E-1,9.395937583E0
1.324391588E1,4.299735120E0,8.693379446E0,1.417411486E-1,9.699621583E0
1.325391987E1,5.293884280E0,8.118762454E0,-8.871892601E-1,9.732760109E0
1.326392287E1,5.778810831E0,6.996865958E0,-2.763753136E0,9.486259497E0
1.327392587E1,5.565110301E0,5.806169368E0,-3.732048540E0,8.866241690E0
1.328392887E1,4.197516434E0,5.111108505E0,-3.908050901E0,7.682150494E0
1.329393187E1,3.638021804E0,5.164126378E0,-3.096535136E0,7.035050373E0
1.330393488E1,3.923734303E0,2.781932715E0,-2.801943056E0,5.566482318E0
1.331393788E1,3.777234361E0,-3.566172388E0,-2.604078541E0,5.810878588E0
1.332394088E1,2.646604756E0,-1.470353244E1,-3.743615868E-1,1.494451503E1
1.333394387E1,1.375603529E-1,-2.883512767E1,4.812794672E0,2.923433774E1
1.334394687E1,-2.455741989E0,-4.081124040E1,1.282998280E1,4.285086313E1
1.335394987E1,-2.510517243E0,-4.288401286E1,1.932572367E1,4.710440374E1
1.336395287E1,-7.487642502E-1,-2.879283125E1,1.297806705E1,3.159142294E1
1.337395587E1,-8.670596355E-1,-1.616119419E1,5.130179783E0,1.697806628E1
1.338395887E1,-2.572150697E0,-1.205395905E1,1.595907611E0,1.242822631E1
1.339396188E1,-4.455734448E0,-1.292712260E1,-3.171409317E0,1.403644917E1
1.340396488E1,-6.742774032E0,-1.620306259E1,-1.043455046E1,2.041773940E1
1.341396788E1,-9.478782130E0,-1.874902215E1,-1.767676325E1,2.745616690E1
1.342397087E1,-1.127509005E1,-1.959381500E1,-1.960122342E1,2.992078210E1
1.343397387E1,-1.044267692E1,-1.852000191E1,-1.511158740E1,2.608447902E1
1.344397687E1,-7.834661449E0,-1.649045090E1,-8.668832250E0,2.021053051E1
1.345397987E1,-4.766224523E0,-1.518775440E1,-3.883134161E0,1.638485614E1
1.346398287E1,-2.408518852E0,-1.516687750E1,-3.753700487E-1,1.536151161E1
1.347398625E1,-9.076594850E-1,-1.584312787E1,1.935341257E0,1.598668485E1
1.348398925E1,-3.797017392E-1,-1.602350980E1,3.252686784E0,1.635472442E1
1.349399225E1,-1.767173289E-1,-1.483153969E1,3.483580467E0,1.523617837E1
1.350399525E1,4.680807958E-1,-1.304255131E1,2.773468285E0,1.334238999E1
1.351399825E1,1.505873208E0,-1.110649143E1,2.203415045E0,1.142264610E1
1.352400125E1,2.486328481E0,-8.740913216E0,2.171793303E0,9.343558173E0
1.353400425E1,3.354338289E0,-6.414710151E0,2.279801316E0,7.589307328E0
1.354400725E1,3.939534064E0,-4.361760337E0,2.377089629E0,6.339987144E0
1.355401025E1,4.074543642E0,-2.347178782E0,2.511187334E0,5.330780051E0
1.356401325E1,3.933421969E0,-4.628971660E-1,2.735214046E0,4.813260647E0
1.357401625E1,3.914709710E0,1.482700692E0,3.116079454E0,5.218553882E0
1.358401925E1,4.057069530E0,3.268316976E0,3.319001226E0,6.177173963E0
1.359402225E1,4.238576752E0,4.826663098E0,3.539608487E0,7.334237369E0
1.360402525E1,4.433497487E0,6.321051790E0,3.675439306E0,8.551049631E0
1.361402825E1,4.628493358E0,7.889529966E0,4.264327598E0,1.009218132E1
1.362403125E1,4.542745402E0,9.190793896E0,4.831989326E0,1.133381441E1
1.363403425E1,4.591270568E0,1.017392602E1,4.939553536E0,1.220605281E1
1.364403725E1,4.977360463E0,1.091606165E1,4.822733184E0,1.293032384E1
1.365404025E1,4.894578508E0,1.108676527E1,3.722917528E0,1.267806680E1
1.366404325E1,4.512759126E0,1.109918358E1,1.998874179E0,1.214711361E1
1.367404625E1,4.232422265E0,1.129646981E1,6.522808796E-1,1.208093948E1
1.368404925E1,3.978824722E0,1.169249120E1,-1.114900303E0,1.240114508E1
1.369405225E1,4.241879260E0,1.302290935E1,-5.011414647E0,1.458437466E1
1.370405525E1,6.717414658E0,1.501820854E1,-1.101695887E1,1.980009167E1
1.371405825E1,8.294045607E0,1.428332346E1,-8.137627326E0,1.841264511E1
1.372406225E1,7.437509791E0,1.319820068E1,-4.440944501E0,1.578705296E1
1.373406525E1,5.546458268E0,1.236707277E1,-2.527635552E0,1.378755344E1
1.374406825E1,4.247578541E0,1.160866668E1,-1.332622547E0,1.243297826E1
1.375407125E1,3.532451495E0,1.091122600E1,-4.735215569E-1,1.147855780E1
1.376407425E1,3.128679619E0,1.036689817E1,2.703945293E-1,1.083209708E1
1.377407725E1,3.001513496E0,1.002956763E1,9.934705907E-1,1.051609689E1
1.378408025E1,3.058791359E0,9.902673690E0,1.569044772E0,1.048241634E1
1.379408325E1,3.034748778E0,1.008086408E1,1.712848855E0,1.066617888E1
1.380408625E1,2.874507587E0,1.033207216E1,1.746729376E0,1.086579829E1
1.381408925E1,2.670576001E0,1.035555808E1,1.858287234E0,1.085462071E1
1.382409225E1,2.449470119E0,1.023232334E1,1.779202473E0,1.067079689E1
1.383409525E1,2.212657300E0,1.014939579E1,1.692047385E0,1.052469057E1
1.384409825E1,1.956392988E0,1.005470364E1,1.664931507E0,1.037769414E1
1.385410125E1,1.768838576E0,9.988349433E0,1.585590638E0,1.026693781E1
1.386410425E1,1.597057028E0,9.919188566E0,1.493652527E0,1.015735649E1
1.387410725E1,1.454161310E0,9.812837069E0,1.444221336E0,1.002457639E1
1.388411025E1,1.360197139E0,9.675036907E0,1.486068689E0,9.882554101E0
1.389411325E1,1.334540434E0,9.488496110E0,1.478283706E0,9.695250348E0
1.390411625E1,1.995689932E0,9.317607139E0,1.499492142E0,9.646193954E0
1.391411925E1,4.453297621E0,8.986650640E0,1.239451259E0,1.010583934E1
1.392412225E1,5.017113343E0,7.498031396E0,-6.091067934E-1,9.042284678E0
1.393412525E1,2.881355846E0,4.925792699E0,-3.308535880E0,6.596366795E0
1.394412825E1,1.246306534E0,5.729489567E0,-3.035256316E0,6.602507976E0
1.395413125E1,1.207096276E0,6.126715484E0,-2.812886705E0,6.848799578E0
1.396413425E1,1.674260155E0,3.474619609E0,-2.806613812E0,4.770032451E0
1.397413725E1,2.088534653E0,-3.350082686E0,-3.286005388E0,5.136425062E0
1.398414125E1,1.584566498E0,-1.509730967E1,-2.523584016E0,1.538857000E1
1.399414425E1,1.817516719E-1,-3.189964871E1,4.443704386E0,3.220818421E1
1.400414725E1,-9.730510904E-1,-4.460085829E1,1.206921444E1,4.621524992E1
1.401415025E1,-2.540706418E0,-4.475354078E1,9.379557220E0,4.579640483E1
1.402415325E1,-1.399066213E-1,-3.173387781E1,5.684825610E0,3.223935199E1
1.403415625E1,3.644873571E-1,-1.726010469E1,1.524884845E0,1.733116669E1
1.404415925E1,-1.082026818E0,-1.097389880E1,-1.442530906E0,1.112106705E1
1.405416225E1,-3.390023262E0,-9.830371699E0,-3.995985423E0,1.113985480E1
1.406416525E1,-6.318549181E0,-1.234359503E1,-5.883314608E0,1.506325970E1
1.407416825E1,-8.039043855E0,-1.490073914E1,-5.886560397E0,1.792511775E1
1.408417125E1,-8.571241052E0,-1.579264652E1,-5.278149422E0,1.872785943E1
1.409417425E1,-8.232210717E0,-1.550212644E1,-4.045655766E0,1.801256639E1
1.410417725E1,-6.517801241E0,-1.513874772E1,-2.422493259E0,1.665928837E1
1.411418025E1,-4.477967316E0,-1.597064629E1,-8.240293177E-1,1.660700932E1
1.412418325E1,-2.795121694E0,-1.694014154E1,1.591501004E-1,1.716992806E1
1.413418625E1,-1.727389857E0,-1.657092964E1,1.102861617E-1,1.666108483E1
1.414418925E1,-1.354886990E0,-1.473185635E1,-6.689460289E-1,1.480914579E1
1.415419225E1,-1.115467337E0,-1.298785997E1,-1.355570530E0,1.310596602E1
1.416419525E1,-4.519827898E-1,-1.172687867E1,-1.470641980E0,1.182737332E1
1.417419825E1,2.689632954E-1,-1.021190018E1,-1.151512644E0,1.028013755E1
1.418420125E1,1.058652062E0,-8.610631405E0,-5.375614687E-1,8.692105022E0
1.419420425E1,1.643093034E0,-6.870033419E0,4.812428051E-1,7.080163030E0
1.420420725E1,2.055304780E0,-4.933867119E0,1.374869265E0,5.518839369E0
1.421421025E1,2.368151575E0,-2.978646498E0,1.943972332E0,4.273114236E0
1.422421425E1,2.572362658E0,-1.137663513E0,2.136202471E0,3.531952564E0
1.423421625E1,2.701270959E0,5.035505176E-1,1.751969651E0,3.258807386E0
1.424422025E1,2.906012970E0,1.938365437E0,1.012296286E0,3.636882693E0
1.425422325E1,3.070520289E0,3.172551278E0,2.977255664E-1,4.425134684E0
1.426422625E1,3.284157668E0,4.510914622E0,2.304968756E-2,5.579836342E0
1.427422925E1,3.602944650E0,6.101269571E0,3.497534700E-1,7.094295456E0
1.428423225E1,3.930807679E0,7.659450801E0,9.962725765E-1,8.666659947E0
1.429423525E1,3.882839169E0,8.946368587E0,1.243806850E0,9.831632946E0
1.430423825E1,3.725330382E0,9.950597470E0,1.193075164E0,1.069186162E1
1.431424125E1,3.854716985E0,1.074822200E1,1.211205041E0,1.148260149E1
1.432424425E1,4.150134984E0,1.133906911E1,1.181870218E0,1.213239160E1
1.433424725E1,4.276843563E0,1.169331916E1,4.663534552E-1,1.245963842E1
1.434425025E1,5.476340797E0,1.305567948E1,-2.860563732E0,1.444381875E1
1.435425325E1,7.642825413E0,1.421033033E1,-6.662803418E0,1.745678142E1
1.436425625E1,8.488888866E0,1.387265713E1,-7.394977144E0,1.786610022E1
1.437425925E1,8.393405589E0,1.292165896E1,-6.510170040E0,1.672724848E1
1.438426225E1,8.040859416E0,1.187662704E1,-5.043140470E0,1.520338632E1
1.439426525E1,7.459426324E0,1.111524705E1,-3.724410322E0,1.389471088E1
1.440426825E1,6.852091237E0,1.067561479E1,-2.192597696E0,1.287351506E1
1.441427125E1,6.443491316E0,1.035475000E1,-7.249377966E-2,1.219609295E1
1.442427425E1,6.403798077E0,1.005220804E1,2.406818043E0,1.215928820E1
1.443427725E1,6.047665222E0,9.768843203E0,4.250983082E0,1.225052690E1
1.444428025E1,5.313841996E0,9.618925856E0,5.019964446E0,1.208141939E1
1.445428325E1,4.609981950E0,9.730225852E0,5.085812280E0,1.190775862E1
1.446428625E1,4.010382729E0,9.836265693E0,4.855379359E0,1.167946921E1
1.447428925E1,3.529495143E0,9.867457080E0,4.050161630E0,1.123511702E1
1.448429163E1,3.204719151E0,9.855152199E0,3.053773863E0,1.080369310E1
1.449429463E1,2.910546901E0,9.834845989E0,2.335670877E0,1.051907017E1
1.450429862E1,2.638929116E0,9.803663957E0,1.716080026E0,1.029663559E1
1.451430162E1,2.455361627E0,9.733766926E0,1.212109094E0,1.011158878E1
1.452430462E1,2.314914285E0,9.623842195E0,9.162393969E-1,9.940656989E0
1.453430762E1,2.233142728E0,9.517878368E0,7.108296347E-1,9.802153531E0
1.454431063E1,2.123235393E0,9.441395618E0,5.150695324E-1,9.690891413E0
1.455431363E1,2.085766874E0,9.358126005E0,4.216760498E-1,9.597018103E0
1.456431663E1,3.129825674E0,9.327838013E0,2.368759686E-1,9.841772247E0
1.457431962E1,6.662681796E0,9.190522585E0,-2.473960597E-2,1.135154818E1
1.458432262E1,7.212168624E0,7.933593414E0,-9.220684862E-1,1.076138890E1
1.459432562E1,3.546995274E0,3.729602065E0,-5.448993369E0,7.495507707E0
1.460432862E1,1.354717421E0,3.962580864E0,-5.064062392E0,6.571303852E0
1.461433162E1,1.697319381E0,5.124528449E0,-3.782602397E0,6.591643634E0
1.462433462E1,2.192525775E0,2.202762496E0,-3.573479068E0,4.735935445E0
1.463433763E1,2.324147477E0,-3.749388458E0,-3.370401760E0,5.551502799E0
1.464434063E1,1.437385063E0,-1.418992237E1,-7.392471027E-1,1.428168264E1
1.465434363E1,4.585298076E-1,-2.822707571E1,5.144456345E0,2.869570497E1
1.466434662E1,1.518105145E0,-4.367056628E1,1.520196548E1,4.626578386E1
1.467434962E1,5.463500896E0,-4.901604405E1,1.844031606E1,5.265422749E1
1.468435262E1,8.968444165E0,-3.265193043E1,7.011123224E0,3.457943609E1
1.469435562E1,5.754651890E0,-1.634958212E1,-1.973542287E0,1.744476205E1
1.470435862E1,6.755646385E-2,-8.668331729E0,-9.114733899E0,1.257866896E1
1.471436162E1,-6.216952640E0,-7.496707002E0,-1.581083721E1,1.856969815E1
1.472436462E1,-8.843995535E0,-8.202566503E0,-1.449564054E1,1.885794127E1
1.473436763E1,-9.218123782E0,-1.029102237E1,-9.711411266E0,1.688758290E1
1.474437063E1,-9.762100779E0,-1.362263954E1,-5.545489969E0,1.765297082E1
1.475437363E1,-9.727443162E0,-1.537254513E1,-1.716505703E0,1.827251176E1
1.476437662E1,-8.973953996E0,-1.609234322E1,1.205240369E0,1.846477633E1
1.477437962E1,-7.391401572E0,-1.708727386E1,3.055436811E0,1.886646335E1
1.478438362E1,-4.884712501E0,-1.859711382E1,4.157831674E0,1.967233141E1
1.479438662E1,-1.978926695E0,-2.008301996E1,4.534229810E0,2.068340111E1
1.480438963E1,3.810378280E-1,-1.892808377E1,2.366810224E0,1.907929075E1
1.481439263E1,3.964293806E-1,-1.560565490E1,-1.209381879E0,1.565746550E1
1.482439563E1,-6.404254306E-2,-1.224975073E1,-2.797181084E0,1.256521852E1
1.483439862E1,-1.175256725E-1,-9.518088284E0,-2.499454896E0,9.841498445E0
1.484440162E1,4.405606560E-1,-7.864225556E0,-1.076847208E0,7.949826237E0
1.485440462E1,1.176634913E0,-6.771989645E0,2.136262514E-1,6.876768838E0
1.486440762E1,1.845204966E0,-5.606703885E0,9.429968405E-1,5.977386792E0
1.487441062E1,2.486150141E0,-4.149171948E0,1.449885533E0,5.049627554E0
1.488441362E1,2.771101040E0,-2.343474571E0,1.872305349E0,4.083674982E0
1.489441663E1,2.919354562E0,-4.970729721E-1,1.820163388E0,3.476018895E0
1.490441963E1,3.007746336E0,1.156800281E0,1.364711482E0,3.499594596E0
1.491442263E1,3.201341799E0,2.739540986E0,7.462321866E-1,4.279081280E0
1.492442563E1,3.541151567E0,4.493220947E0,3.586886734E-1,5.732141525E0
1.493442862E1,3.975178691E0,6.313269145E0,5.492868537E-1,7.480717143E0
1.494443162E1,4.232110316E0,7.831357187E0,9.879590052E-1,8.956393031E0
1.495443462E1,4.234108310E0,9.214765726E0,1.264950966E0,1.021957345E1
1.496443762E1,3.972750050E0,1.081715834E1,1.326408273E0,1.159969898E1
1.497444062E1,3.702349362E0,1.211715576E1,1.617547572E0,1.277299161E1
1.498444362E1,4.016030847E0,1.238172473E1,1.467113185E-1,1.301757025E1
1.499444663E1,5.497788384E0,1.309322094E1,-3.205561150E0,1.455794402E1
1.500444963E1,7.401929483E0,1.365939280E1,-6.279380438E0,1.675703406E1
1.501445263E1,7.921956285E0,1.330923814E1,-7.362524512E0,1.714934338E1
1.502445562E1,7.686298292E0,1.241568302E1,-6.252332388E0,1.588458456E1
1.503445862E1,7.124248720E0,1.154107287E1,-4.316454356E0,1.423316764E1
1.504446162E1,6.570653054E0,1.099843606E1,-2.854827029E0,1.312589481E1
1.505446462E1,6.411069090E0,1.082753481E1,-9.891974455E-1,1.262203741E1
1.506446863E1,6.445889844E0,1.076062278E1,6.278769404E-1,1.255924870E1
1.507447163E1,6.469061190E0,1.056235422E1,1.950351645E0,1.253857850E1
1.508447463E1,6.372407885E0,1.036577317E1,3.160469177E0,1.257161092E1
1.509447762E1,5.881900166E0,1.011901599E1,3.925545770E0,1.234508582E1
1.510448062E1,5.195634685E0,9.892569702E0,3.992402834E0,1.186578423E1
1.511448362E1,4.559704666E0,9.707748570E0,3.731040480E0,1.135570130E1
1.512448662E1,4.105038626E0,9.633252704E0,3.537985300E0,1.105297425E1
1.513448962E1,3.766490979E0,9.627601370E0,3.073930385E0,1.078546292E1
1.514449262E1,3.549275104E0,9.691714920E0,2.396359713E0,1.059571761E1
1.515449562E1,3.333728024E0,9.686503297E0,1.939622004E0,1.042613170E1
1.516449863E1,3.143955178E0,9.615311692E0,1.512147855E0,1.022864919E1
1.517450163E1,2.931132608E0,9.493901276E0,1.042823430E0,9.990654659E0
1.518450463E1,2.853560522E0,9.342066042E0,6.822589695E-1,9.791960115E0
1.519450762E1,3.339225576E0,9.199996828E0,6.228746474E-1,9.807055721E0
1.520451062E1,4.172764878E0,9.187823510E0,2.046244812E-1,1.009306389E1
1.521451362E1,4.630621744E0,9.284694917E0,-4.386657196E-1,1.038463505E1
1.522451662E1,4.838614222E0,9.224034732E0,-1.044934275E0,1.046837580E1
1.523451962E1,4.856524828E0,8.919423448E0,-1.587376378E0,1.027918829E1
1.524452262E1,5.480866542E0,7.963549284E0,-2.918378077E0,1.009826450E1
1.525452563E1,6.049090773E0,6.479232422E0,-4.646653056E0,1.000816350E1
1.526452863E1,4.182318644E0,5.503721554E0,-4.163270754E0,8.069421513E0
1.527453163E1,2.461946469E0,6.305035096E0,-1.946018273E0,7.042842828E0
1.528453462E1,2.381740505E0,6.250539047E0,-9.139706773E-1,6.751093882E0
1.529453762E1,2.492917416E0,2.154811234E0,-1.087694378E0,3.470004000E0
1.530454062E1,1.713339728E0,-6.333592313E0,-3.317943684E-1,6.569628004E0
1.531454362E1,-5.787735217E-1,-2.202753257E1,2.950907891E0,2.223184714E1
1.532454662E1,-2.314823214E0,-4.039129337E1,1.242234183E1,4.232173866E1
1.533454962E1,-2.364710635E0,-4.812436237E1,1.747454782E1,5.125335044E1
1.534455363E1,-2.672673836E-1,-3.530138103E1,8.932149328E0,3.641486270E1
1.535455662E1,1.547588268E0,-1.823211776E1,2.805282986E0,1.851147644E1
1.536455962E1,4.625798815E-1,-1.021189083E1,-1.385074410E0,1.031577072E1
1.537456262E1,-2.560566778E0,-7.846230749E0,-7.148194823E0,1.091863217E1
1.538456562E1,-6.391571549E0,-8.670762416E0,-1.200545055E1,1.612963579E1
1.539456862E1,-8.633129151E0,-1.129747085E1,-1.278719405E1,1.912265929E1
1.540457162E1,-8.639020806E0,-1.580867842E1,-9.974419026E0,2.059213512E1
1.541457462E1,-6.409427192E0,-2.006668985E1,-5.573160748E0,2.179020237E1
1.542457763E1,-3.088914168E0,-2.070935733E1,-1.618720377E0,2.100093158E1
1.543458063E1,-2.498632558E-1,-1.788134680E1,6.405354314E-1,1.789456008E1
1.544458363E1,-4.003456264E-1,-1.496966612E1,1.035592690E0,1.501078388E1
1.545458662E1,-1.815682813E0,-1.412299280E1,8.784727427E-1,1.426630100E1
1.546458962E1,-2.951688495E0,-1.414878370E1,7.412234616E-1,1.447238603E1
1.547459262E1,-3.507475990E0,-1.314401103E1,6.027449862E-1,1.361729471E1
1.548459675E1,-3.523785629E0,-1.172032278E1,4.886523603E-1,1.224833916E1
1.549459975E1,-3.137929622E0,-1.088129177E1,2.960918544E-1,1.132858258E1
1.550460275E1,-2.430914565E0,-1.030481478E1,4.360566920E-1,1.059663620E1
1.551460575E1,-1.564636264E0,-9.638187754E0,1.115280372E0,9.827848194E0
1.552460875E1,-6.990964656E-1,-8.468439399E0,2.115217398E0,8.756560190E0
1.553461175E1,2.983084242E-1,-6.656118296E0,2.637888896E0,7.165986081E0
1.554461475E1,1.247138447E0,-4.747273112E0,2.337602212E0,5.436574327E0
1.555461775E1,1.803196669E0,-2.760575759E0,2.707535666E0,4.266502799E0
1.556462075E1,2.025817856E0,-1.105124928E0,2.826421840E0,3.648821660E0
1.557462375E1,2.276932818E0,1.681846333E-1,1.909445109E0,2.976355112E0
1.558462675E1,2.827036967E0,1.491734641E0,6.983855903E-1,3.271872962E0
1.559462975E1,3.281619977E0,3.066780410E0,-1.374499136E-1,4.493669351E0
1.560463275E1,3.582981378E0,4.840530939E0,-2.625984915E-1,6.028055516E0
1.561463575E1,3.734489168E0,6.728890404E0,-5.373883545E-2,7.695925108E0
1.562463875E1,3.921882782E0,8.395367330E0,1.119981899E-1,9.266925097E0
1.563464275E1,3.972464413E0,9.618862706E0,8.571086247E-2,1.040722536E1
1.564464575E1,3.977006530E0,1.035788177E1,7.125767827E-2,1.109537621E1
1.565464875E1,4.077440353E0,1.097240776E1,1.387771950E-1,1.170634490E1
1.566465175E1,4.385986521E0,1.140030700E1,2.113849954E-1,1.221673283E1
1.567465475E1,4.558307182E0,1.153569109E1,1.172538500E-2,1.240364748E1
1.568465775E1,4.939733046E0,1.176712272E1,-6.921518737E-1,1.278065780E1
1.569466075E1,5.887249199E0,1.238374319E1,-1.783436442E0,1.382741639E1
1.570466375E1,7.014966599E0,1.286919306E1,-2.569899226E0,1.488053321E1
1.571466675E1,7.356924049E0,1.267600106E1,-2.506783211E0,1.486907181E1
1.572466975E1,7.483132106E0,1.238179372E1,-1.844706491E0,1.458454744E1
1.573467275E1,7.168632596E0,1.220486049E1,-8.921629018E-1,1.418251978E1
1.574467575E1,7.006216825E0,1.206648262E1,-1.520621055E-1,1.395385968E1
1.575467875E1,7.001305164E0,1.195201753E1,4.522458780E-1,1.385905925E1
1.576468175E1,7.147996017E0,1.193499394E1,1.228083687E0,1.396589120E1
1.577468475E1,6.920486704E0,1.160311885E1,1.937438654E0,1.364841279E1
1.578468775E1,6.295861984E0,1.085071317E1,1.950314223E0,1.269565201E1
1.579469075E1,5.684521555E0,1.032194361E1,1.824050617E0,1.192407086E1
1.580469375E1,5.026420941E0,1.017455752E1,1.739380011E0,1.148093947E1
1.581469675E1,4.443586857E0,1.015025650E1,1.591979306E0,1.119408635E1
1.582469975E1,4.089378321E0,1.004350739E1,1.360635388E0,1.092915296E1
1.583470275E1,3.827902239E0,9.849239495E0,1.028203636E0,1.061685249E1
1.584470575E1,3.681976494E0,9.698688310E0,7.127878672E-1,1.039853703E1
1.585470875E1,3.677339359E0,9.536719851E0,3.804081559E-1,1.022822373E1
1.586471175E1,3.840392476E0,9.393266602E0,9.202112278E-2,1.014842548E1
1.587471475E1,4.288958994E0,9.340052846E0,3.011334334E-3,1.027773153E1
1.588471775E1,4.712651748E0,9.282292880E0,1.039488945E-1,1.041061252E1
1.589472075E1,4.833966855E0,9.127374410E0,2.850517631E-1,1.033234986E1
1.590472375E1,5.047898349E0,8.676979176E0,3.809648108E-1,1.004571449E1
1.591472675E1,5.247574916E0,7.439587306E0,-3.746556652E-1,9.111798322E0
1.592473075E1,4.763115850E0,5.668252847E0,-2.069829556E0,7.687688686E0
1.593473375E1,3.737928500E0,5.377468473E0,-2.576684335E0,7.037654355E0
1.594473675E1,2.745587299E0,6.088654203E0,-2.099638077E0,7.001316996E0
1.595473975E1,2.570147148E0,6.304230520E0,-1.013489045E0,6.883032678E0
1.596474275E1,2.482572522E0,3.335383955E0,-8.290398699E-1,4.239723996E0
1.597474575E1,2.597588716E0,-2.380265837E0,-7.679680413E-1,3.605954451E0
1.598474875E1,1.933406414E0,-1.156051837E1,2.985640352E0,1.209535835E1
1.599475175E1,1.797632166E0,-2.446270610E1,7.067461147E0,2.552654458E1
1.600475475E1,2.666967684E0,-3.838783849E1,1.182331329E1,4.025580203E1
1.601475775E1,6.261701381E0,-4.761180948E1,1.924033912E1,5.173281314E1
1.602476075E1,4.372325378E0,-3.865850142E1,4.900641485E0,3.921241192E1
1.603476375E1,-4.946499590E-1,-2.352147746E1,-7.344608644E0,2.464645728E1
1.604476675E1,-2.764082335E0,-1.379347180E1,-1.270741932E1,1.895728148E1
1.605476975E1,-5.632239845E0,-8.748100029E0,-1.705633274E1,1.997923588E1
1.606477275E1,-7.770780618E0,-8.710605928E0,-1.769053344E1,2.119468472E1
1.607477575E1,-8.550489283E0,-1.195769634E1,-1.219649312E1,1.910109456E1
1.608477875E1,-8.398836483E0,-1.368852363E1,-5.860638521E0,1.709570757E1
1.609478175E1,-7.214727951E0,-1.274966194E1,-1.936959328E0,1.477694117E1
1.610478475E1,-5.758178346E0,-1.179843456E1,1.173030397E0,1.318088298E1
1.611478775E1,-4.160034613E0,-1.205646985E1,3.246964114E0,1.316081795E1
1.612479075E1,-2.520300512E0,-1.421101679E1,4.116455022E0,1.500833484E1
1.613479375E1,-1.313134801E0,-1.657791823E1,4.114592099E0,1.713130363E1
1.614479675E1,-5.810740721E-1,-1.762982297E1,2.968002811E0,1.788735156E1
1.615479975E1,-2.643328853E-2,-1.669348260E1,1.540989246E0,1.676447756E1
1.616480275E1,3.883929674E-1,-1.386791855E1,-9.265614867E-2,1.387366567E1
1.617480575E1,7.299050063E-1,-1.124628199E1,-1.763426101E0,1.140707199E1
1.618480875E1,8.961318456E-1,-9.379989914E0,-2.706321784E0,9.803644254E0
1.619481175E1,9.571338730E-1,-8.065935785E0,-2.940324431E0,8.638340876E0
1.620481475E1,1.051828507E0,-7.070649049E0,-2.364468414E0,7.529351370E0
1.621481875E1,1.279929779E0,-6.208021603E0,-1.102190795E0,6.433706319E0
1.622482175E1,1.685157172E0,-5.521454989E0,-1.310495514E-1,5.774373895E0
1.623482475E1,2.278458065E0,-4.584479027E0,7.571863604E-1,5.175147368E0
1.624482775E1,2.795552049E0,-3.262201374E0,1.683325093E0,4.614179497E0
1.625483075E1,2.937883219E0,-1.466030865E0,2.428162719E0,4.083672182E0
1.626483375E1,3.015778656E0,5.123266035E-1,2.656262017E0,4.051311806E0
1.627483675E1,3.014734343E0,2.231931916E0,2.041850045E0,4.270748745E0
1.628483975E1,3.149844201E0,3.662233955E0,1.146133205E0,4.964584308E0
1.629484275E1,3.621003483E0,5.220105282E0,1.254448782E0,6.475709006E0
1.630484575E1,3.895184395E0,6.753056361E0,2.240560652E0,8.111494543E0
1.631484875E1,4.003169604E0,8.146941356E0,3.476854999E0,9.720418768E0
1.632485175E1,4.288726274E0,9.450837117E0,4.035592123E0,1.113541643E1
1.633485475E1,4.573871008E0,1.049507382E1,3.793864719E0,1.206069152E1
1.634485775E1,4.567651325E0,1.132234491E1,3.423562891E0,1.267989415E1
1.635486075E1,4.060876068E0,1.141919585E1,2.209507259E0,1.231952396E1
1.636486375E1,3.623724192E0,1.117190423E1,6.001125332E-1,1.176022773E1
1.637486675E1,3.420788972E0,1.174525998E1,-1.673856843E0,1.234725581E1
1.638486975E1,4.322774026E0,1.363019882E1,-5.873370248E0,1.545849842E1
1.639487275E1,5.875960565E0,1.330188936E1,-6.196639997E0,1.580713511E1
1.640487575E1,6.271745728E0,1.264552888E1,-5.169388872E0,1.503219134E1
1.641487875E1,6.180887014E0,1.216401184E1,-4.048392847E0,1.423221813E1
1.642488175E1,6.082266120E0,1.182720286E1,-3.076135370E0,1.365061528E1
1.643488475E1,6.064083034E0,1.168433901E1,-2.456472598E0,1.339145768E1
1.644488775E1,5.919843918E0,1.147213186E1,-1.610109183E0,1.300948934E1
1.645489075E1,5.817131728E0,1.141134070E1,-8.059123778E-1,1.283383079E1
1.646489375E1,5.568924440E0,1.131632578E1,2.840366864E-1,1.261557868E1
1.647489675E1,5.212979865E0,1.102928831E1,1.241296055E0,1.226218478E1
1.648489888E1,4.785831698E0,1.069601222E1,1.877714024E0,1.186737849E1
1.649490287E1,4.341064117E0,1.049778927E1,2.235615077E0,1.157784055E1
1.650490587E1,3.956040461E0,1.036264257E1,2.375496848E0,1.134361505E1
1.651490887E1,3.594180551E0,1.020631024E1,2.531192998E0,1.111277826E1
1.652491187E1,3.301074248E0,9.964946537E0,2.458708574E0,1.078158145E1
1.653491487E1,3.096681901E0,9.770206774E0,2.171138999E0,1.047665136E1
1.654491787E1,2.917483453E0,9.611295825E0,1.985632575E0,1.023872325E1
1.655492088E1,2.729361568E0,9.506723050E0,1.713889074E0,1.003815787E1
1.656492388E1,2.607573422E0,9.311038962E0,1.433016901E0,9.774887372E0
1.657492688E1,2.522067833E0,9.118421153E0,1.310625907E0,9.551134527E0
1.658492987E1,3.104832335E0,8.881224173E0,1.277188019E0,9.494595087E0
1.659493287E1,5.252452079E0,7.701377676E0,9.910153449E-1,9.374517714E0
1.660493587E1,5.440496780E0,7.174960452E0,8.074303150E-1,9.040520252E0
1.661493887E1,3.242316747E0,4.644711780E0,-5.366565170E0,7.802947336E0
1.662494187E1,9.823359572E-1,3.410341167E0,-5.757755592E0,6.763664707E0
1.663494487E1,3.291235431E-1,5.113224027E0,-2.668622446E0,5.777103774E0
1.664494788E1,8.386855830E-1,6.102647760E0,-6.301425537E-2,6.160330672E0
1.665495088E1,9.007890067E-1,3.451265829E0,1.148597807E0,3.747256807E0
1.666495388E1,3.376587237E-1,-2.609611761E0,1.784156234E0,3.179198079E0
1.667495688E1,-5.608585300E-2,-1.075915747E1,3.344668164E0,1.126718333E1
1.668495987E1,-2.245743916E0,-2.515039246E1,7.307422106E0,2.628657498E1
1.669496287E1,-4.485244468E0,-4.001421345E1,1.145711855E1,4.186311338E1
1.670496587E1,-3.880670144E0,-4.777473162E1,1.677299888E1,5.078206449E1
1.671496887E1,-1.047318404E0,-3.993162738E1,1.031485211E1,4.125564101E1
1.672497187E1,-2.224345446E0,-2.430027747E1,-3.339500395E0,2.462932116E1
1.673497487E1,-3.628523879E0,-1.503260906E1,-5.225661306E0,1.632338987E1
1.674497788E1,-2.401623084E0,-9.172301491E0,-5.380490314E0,1.090176977E1
